timestamp	ppg	hrm	accx	accy	accz	grax	gray	graz	gyrx	gyry	grz	pressure	stress
1549066937018	2738926.00	0.00	-6.31	7.08	2.51	-6.31	7.08	2.51	-1.19	-0.35	-1.26	1006.19	12.00
1549066937029	2755956.00	0.00	-6.28	7.06	2.46	-6.31	7.07	2.51	-1.19	-0.35	-1.26	1006.19	15.00
1549066937082	2770916.00	0.00	-6.33	7.11	2.45	-6.32	7.07	2.50	0.07	-0.98	-2.03	1006.19	13.00
1549066937133	2770165.00	0.00	-6.37	7.07	2.44	-6.33	7.06	2.50	-1.05	-0.77	-1.75	1006.18	35.00
1549066937182	2756019.00	0.00	-6.31	7.08	2.50	-6.33	7.05	2.51	-1.54	-0.70	-1.40	1006.18	32.00
1549066937233	2741841.00	0.00	-6.34	7.07	2.47	-6.34	7.05	2.51	-0.91	-0.49	-1.40	1006.18	0.00
1549066937285	2736466.00	0.00	-6.31	7.06	2.46	-6.35	7.04	2.51	-1.26	-0.49	-1.54	1006.18	36.00
1549066937335	2741108.00	0.00	-6.34	7.07	2.46	-6.35	7.04	2.51	-0.91	-0.70	-1.61	1006.18	21.00
1549066937388	2751440.00	0.00	-6.29	7.07	2.44	-6.35	7.04	2.51	-0.77	-0.56	-1.47	1006.18	1.00
1549066937437	2762251.00	0.00	-6.30	7.06	2.53	-6.35	7.03	2.51	-1.26	-0.56	-1.47	1006.18	15.00
1549066937489	2771161.00	0.00	-6.31	7.09	2.46	-6.36	7.03	2.51	-1.05	-0.49	-1.47	1006.17	10.00
1549066937539	2780019.00	0.00	-6.33	7.05	2.49	-6.36	7.03	2.52	-1.12	-0.56	-1.54	1006.17	16.00
1549066937591	2802757.00	0.00	-6.31	7.04	2.42	-6.36	7.03	2.51	-1.12	-0.49	-1.54	1006.17	27.00
1549066937642	2815974.00	0.00	-6.31	7.08	2.48	-6.36	7.03	2.51	-0.98	-0.49	-1.47	1006.17	36.00
1549066937696	2829592.00	0.00	-6.34	7.08	2.50	-6.37	7.02	2.52	-1.19	-0.49	-1.40	1006.17	16.00
1549066937744	2842624.00	0.00	-6.31	7.09	2.45	-6.37	7.02	2.51	-1.26	-0.28	-1.19	1006.17	21.00
1549066937795	2852267.00	0.00	-6.29	7.06	2.50	-6.37	7.02	2.51	-0.21	-0.56	-1.75	1006.17	-5.00
1549066937845	2846444.00	0.00	-6.35	7.09	2.43	-6.37	7.02	2.51	-0.63	-0.42	-1.54	1006.17	28.00
1549066937897	2832036.00	0.00	-6.31	7.06	2.49	-6.37	7.02	2.51	-1.47	-0.49	-1.33	1006.17	14.00
1549066937947	2820450.00	0.00	-6.30	7.04	2.51	-6.37	7.02	2.52	-1.26	-0.42	-1.33	1006.17	26.00
1549066938001	2816445.00	0.00	-6.29	7.03	2.45	-6.37	7.02	2.52	-1.40	-0.28	-1.26	1006.17	10.00
1549066938053	2819460.00	0.00	-6.28	7.10	2.45	-6.37	7.02	2.51	-1.40	-0.42	-1.54	1006.16	14.00
1549066938101	2827083.00	0.00	-6.33	7.08	2.47	-6.37	7.02	2.51	-0.98	-0.42	-1.40	1006.16	21.00
1549066938152	2834484.00	0.00	-6.33	7.04	2.50	-6.37	7.01	2.52	-1.40	-0.42	-1.26	1006.16	19.00
1549066938205	2840599.00	0.00	-6.31	7.03	2.46	-6.38	7.01	2.52	-1.19	-0.42	-1.33	1006.16	27.00
1549066938254	2847777.00	0.00	-6.36	7.10	2.47	-6.38	7.01	2.52	-1.19	-0.28	-1.40	1006.16	37.00
1549066938306	2856361.00	0.00	-6.32	7.05	2.52	-6.38	7.01	2.52	-1.47	-0.28	-1.12	1006.16	9.00
1549066938356	2865676.00	0.00	-6.31	7.07	2.45	-6.38	7.01	2.52	-1.12	0.42	-0.77	1006.16	-7.00
1549066938408	2874690.00	0.00	-6.30	7.08	2.45	-6.38	7.01	2.51	-1.47	0.28	-0.91	1006.16	68.00
1549066938459	2883153.00	0.00	-6.31	7.04	2.45	-6.38	7.01	2.51	-1.96	0.21	-0.84	1006.16	47.00
1549066938510	2890611.00	0.00	-6.29	7.04	2.49	-6.38	7.01	2.51	-1.12	0.14	-1.19	1006.17	43.00
1549066938561	2895861.00	0.00	-6.31	7.08	2.41	-6.38	7.01	2.50	-0.42	0.21	-1.05	1006.17	32.00
1549066938616	2886275.00	0.00	-6.29	7.04	2.49	-6.38	7.01	2.51	-1.68	0.21	-0.91	1006.17	3.00
1549066938663	2866265.00	0.00	-6.29	7.06	2.46	-6.38	7.01	2.51	-1.82	0.35	-0.70	1006.17	23.00
1549066938716	2848892.00	0.00	-6.32	7.06	2.48	-6.39	7.01	2.51	-1.40	0.28	-0.77	1006.17	25.00
1549066938765	2838655.00	0.00	-6.29	7.05	2.49	-6.39	7.01	2.51	-1.82	0.35	-0.84	1006.17	61.00
1549066938821	2835931.00	0.00	-6.29	7.08	2.44	-6.38	7.01	2.51	-1.12	0.21	-0.91	1006.17	42.00
1549066938867	2836190.00	0.00	-6.28	7.09	2.46	-6.38	7.01	2.51	-1.40	0.21	-0.91	1006.17	91.00
1549066938921	2836181.00	0.00	-6.28	7.07	2.47	-6.38	7.01	2.51	-1.82	0.14	-0.91	1006.17	24.00
1549066938969	2835728.00	0.00	-6.28	7.07	2.45	-6.38	7.01	2.51	-1.47	0.21	-0.98	1006.17	7.00
1549066939025	2836404.00	0.00	-6.30	7.06	2.47	-6.38	7.01	2.51	-1.40	0.14	-1.05	1006.17	24.00
1549066939071	2838628.00	0.00	-6.29	7.08	2.45	-6.38	7.01	2.51	-1.40	0.07	-1.19	1006.17	10.00
1549066939125	2842625.00	0.00	-6.30	7.05	2.45	-6.38	7.01	2.50	-1.40	-0.07	-1.12	1006.17	6.00
1549066939173	2847615.00	0.00	-6.25	7.06	2.49	-6.38	7.01	2.51	-1.75	-0.07	-1.12	1006.17	6.00
1549066939228	2852727.00	0.00	-6.32	7.04	2.51	-6.38	7.01	2.51	-1.33	0.21	-0.91	1006.17	3.00
1549066939276	2858040.00	0.00	-6.29	7.13	2.42	-6.38	7.02	2.50	0.14	0.21	-1.26	1006.17	40.00
1549066939329	2863315.00	0.00	-6.30	7.07	2.47	-6.38	7.02	2.50	-1.40	-0.28	-1.40	1006.17	87.00
1549066939378	2854210.00	0.00	-6.29	7.08	2.44	-6.37	7.02	2.50	-1.26	-0.21	-1.19	1006.18	32.00
1549066939431	2835877.00	0.00	-6.31	7.11	2.42	-6.37	7.02	2.50	-0.98	-0.21	-1.19	1006.18	44.00
1549066939480	2820563.00	0.00	-6.28	7.06	2.44	-6.37	7.02	2.50	-1.26	-0.07	-1.19	1006.18	49.00
1549066939535	2813356.00	0.00	-6.26	7.08	2.43	-6.37	7.03	2.49	-0.70	-0.28	-1.26	1006.18	8.00
1549066939583	2815281.00	0.00	-6.30	7.05	2.44	-6.37	7.03	2.49	-0.70	-0.49	-1.33	1006.18	2.00
1549066939638	2817193.00	0.00	-6.30	7.09	2.45	-6.37	7.03	2.49	-0.84	-0.63	-1.47	1006.18	34.00
1549066939685	2819394.00	0.00	-6.30	7.09	2.46	-6.37	7.03	2.49	-0.77	-0.70	-1.54	1006.17	24.00
1549066939738	2823181.00	0.00	-6.28	7.08	2.45	-6.36	7.03	2.50	-1.05	-0.77	-1.68	1006.17	1.00
1549066939786	2828877.00	0.00	-6.31	7.08	2.42	-6.37	7.03	2.49	-0.98	-0.77	-1.61	1006.17	37.00
1549066939840	2836833.00	0.00	-6.27	7.09	2.45	-6.36	7.03	2.49	-0.70	-0.98	-1.75	1006.17	41.00
1549066939888	2847049.00	0.00	-6.30	7.08	2.41	-6.36	7.03	2.49	-0.91	-1.05	-1.89	1006.17	64.00
1549066939942	2858252.00	0.00	-6.33	7.10	2.45	-6.36	7.03	2.49	-1.40	-0.91	-1.68	1006.17	37.00
1549066939991	2869403.00	0.00	-6.29	7.09	2.50	-6.36	7.03	2.50	-0.35	-0.98	-1.96	1006.18	21.00
1549066940045	2871943.00	0.00	-6.32	7.09	2.40	-6.36	7.04	2.49	0.07	-0.98	-1.96	1006.18	26.00
1549066940093	2856921.00	0.00	-6.32	7.07	2.43	-6.37	7.03	2.49	-1.33	-0.70	-1.61	1006.18	9.00
1549066940147	2835864.00	0.00	-6.30	7.08	2.48	-6.37	7.03	2.49	-1.54	-0.77	-1.54	1006.18	16.00
1549066940195	2820102.00	0.00	-6.31	7.07	2.48	-6.37	7.03	2.50	-1.05	-0.35	-1.26	1006.18	1.00
1549066940248	2813559.00	0.00	-6.32	7.05	2.46	-6.37	7.02	2.50	-1.26	-0.63	-1.54	1006.18	31.00
1549066940300	2813848.00	0.00	-6.30	7.07	2.43	-6.37	7.03	2.50	-0.70	-0.70	-1.68	1006.18	5.00
1549066940350	2816741.00	0.00	-6.30	7.09	2.44	-6.37	7.03	2.50	-0.91	-0.49	-1.47	1006.18	21.00
1549066940400	2818450.00	0.00	-6.30	7.09	2.50	-6.37	7.03	2.50	-1.33	-0.56	-1.40	1006.18	30.00
1549066940455	2819894.00	0.00	-6.32	7.06	2.46	-6.37	7.02	2.50	-1.19	-0.56	-1.47	1006.18	20.00
1549066940502	2822980.00	0.00	-6.31	7.07	2.43	-6.37	7.02	2.50	-1.12	-0.56	-1.61	1006.18	34.00
1549066940555	2828481.00	0.00	-6.33	7.10	2.50	-6.37	7.02	2.50	-1.12	-0.49	-1.47	1006.18	12.00
1549066940604	2836117.00	0.00	-6.31	7.03	2.46	-6.37	7.02	2.50	-0.98	-0.49	-1.47	1006.18	42.00
1549066940657	2844720.00	0.00	-6.30	7.06	2.52	-6.37	7.02	2.51	-1.19	-0.49	-1.40	1006.18	86.00
1549066940705	2853461.00	0.00	-6.31	7.05	2.47	-6.37	7.02	2.51	-1.26	-0.28	-1.19	1006.18	1.00
1549066940759	2862201.00	0.00	-6.29	7.09	2.51	-6.37	7.02	2.51	-0.28	-0.56	-1.68	1006.18	94.00
1549066940808	2857927.00	0.00	-6.34	7.08	2.49	-6.37	7.02	2.52	-0.63	-0.56	-1.54	1006.18	58.00
1549066940862	2834049.00	0.00	-6.30	7.04	2.49	-6.37	7.02	2.52	-1.40	-0.42	-1.33	1006.18	75.00
1549066940910	2805195.00	0.00	-6.32	7.07	2.50	-6.37	7.01	2.52	-1.26	-0.35	-1.33	1006.18	82.00
1549066940966	2783487.00	0.00	-6.31	7.06	2.55	-6.37	7.01	2.53	-1.26	-0.21	-1.19	1006.18	104.00
1549066941013	2772707.00	0.00	-6.35	7.03	2.47	-6.38	7.01	2.53	-1.19	-0.42	-1.40	1006.18	62.00
1549066941068	2770535.00	0.00	-6.35	7.01	2.48	-6.38	7.00	2.53	-0.77	-0.35	-1.33	1006.18	15.00
1549066941115	2771695.00	0.00	-6.27	7.05	2.43	-6.38	7.01	2.52	-1.40	-0.35	-1.40	1006.18	30.00
1549066941168	2772219.00	0.00	-6.32	7.06	2.51	-6.38	7.00	2.53	-1.47	-0.35	-1.40	1006.18	61.00
1549066941217	2773048.00	0.00	-6.30	7.08	2.47	-6.38	7.00	2.53	-1.19	-0.42	-1.61	1006.18	82.00
1549066941270	2775576.00	0.00	-6.33	7.06	2.44	-6.38	7.00	2.52	-0.98	-0.56	-1.82	1006.18	114.00
1549066941319	2781699.00	0.00	-6.34	7.03	2.48	-6.39	7.00	2.52	-1.54	-0.49	-1.47	1006.18	73.00
1549066941373	2789323.00	0.00	-6.28	7.05	2.52	-6.38	7.00	2.53	-0.91	-0.42	-1.40	1006.18	54.00
1549066941421	2797178.00	0.00	-6.33	7.06	2.48	-6.38	7.00	2.53	-0.84	-0.42	-1.26	1006.18	17.00
1549066941476	2805500.00	0.00	-6.32	7.07	2.44	-6.38	7.01	2.52	-0.84	-0.07	-1.12	1006.18	30.00
1549066941522	2814063.00	0.00	-6.31	7.06	2.49	-6.38	7.01	2.52	-0.21	0.07	-1.12	1006.18	11.00
1549066941577	2797725.00	0.00	-6.33	7.08	2.48	-6.38	7.01	2.52	-1.12	0.28	-0.98	1006.18	23.00
1549066941625	2767329.00	0.00	-6.33	7.06	2.51	-6.38	7.00	2.52	-1.75	0.14	-0.91	1006.18	7.00
1549066941679	2741531.00	0.00	-6.32	7.05	2.49	-6.39	7.00	2.52	-1.54	0.21	-0.98	1006.18	60.00
1549066941728	2727249.00	0.00	-6.29	7.00	2.45	-6.39	7.00	2.52	-1.61	0.56	-0.63	1006.18	45.00
1549066941781	2722914.00	0.00	-6.33	7.07	2.47	-6.39	7.00	2.52	-1.26	0.42	-0.70	1006.18	31.00
1549066941832	2722859.00	0.00	-6.29	7.06	2.41	-6.39	7.01	2.51	-0.70	0.42	-0.77	1006.18	57.00
1549066941885	2722764.00	0.00	-6.28	7.07	2.39	-6.39	7.01	2.50	-1.61	0.35	-0.77	1006.18	14.00
1549066941931	2721757.00	0.00	-6.34	7.07	2.44	-6.39	7.01	2.50	-1.82	0.21	-0.98	1006.19	24.00
1549066941986	2722009.00	0.00	-6.28	7.09	2.48	-6.39	7.01	2.50	-1.47	0.14	-1.05	1006.19	46.00
1549066942034	2724580.00	0.00	-6.31	7.08	2.48	-6.38	7.01	2.50	-1.75	0.28	-0.63	1006.19	13.00
1549066942087	2728840.00	0.00	-6.31	7.08	2.47	-6.38	7.01	2.50	-1.19	0.21	-0.84	1006.19	27.00
1549066942136	2735240.00	0.00	-6.29	7.09	2.44	-6.38	7.01	2.50	-1.19	0.21	-0.98	1006.19	59.00
1549066942189	2742920.00	0.00	-6.31	7.06	2.45	-6.38	7.01	2.50	-1.68	0.21	-0.84	1006.19	3.00
1549066942238	2751546.00	0.00	-6.26	7.06	2.47	-6.38	7.02	2.50	-0.63	0.35	-0.91	1006.19	39.00
1549066942292	2759469.00	0.00	-6.31	7.08	2.39	-6.38	7.02	2.49	0.28	0.07	-1.19	1006.19	116.00
1549066942340	2749600.00	0.00	-6.27	7.07	2.43	-6.38	7.02	2.49	-1.19	-0.07	-1.19	1006.19	30.00
1549066942396	2726198.00	0.00	-6.25	7.06	2.44	-6.37	7.03	2.49	-1.19	0.07	-0.91	1006.19	46.00
1549066942442	2706693.00	0.00	-6.31	7.14	2.45	-6.37	7.03	2.48	-0.91	0.14	-0.84	1006.19	28.00
1549066942496	2698922.00	0.00	-6.29	7.07	2.42	-6.37	7.03	2.48	-0.91	0.21	-1.05	1006.19	46.00
1549066942544	2701606.00	0.00	-6.27	7.12	2.44	-6.37	7.04	2.48	-0.56	0.21	-1.05	1006.19	12.00
1549066942600	2708319.00	0.00	-6.28	7.09	2.40	-6.36	7.04	2.47	-0.77	-0.07	-1.05	1006.19	86.00
1549066942645	2713895.00	82.00	-6.26	7.09	2.42	-6.36	7.04	2.47	-1.05	-0.21	-0.98	1006.19	97.00
1549066942699	2717925.00	83.00	-6.28	7.09	2.47	-6.36	7.04	2.47	-0.84	-0.28	-1.26	1006.19	71.00
1549066942747	2722608.00	82.00	-6.27	7.11	2.38	-6.36	7.05	2.47	-0.70	-0.28	-1.26	1006.19	75.00
1549066942802	2729811.00	82.00	-6.26	7.05	2.45	-6.36	7.05	2.47	-0.56	-0.35	-1.33	1006.19	44.00
1549066942850	2739929.00	82.00	-6.30	7.14	2.36	-6.35	7.05	2.46	-0.56	-0.56	-1.33	1006.19	20.00
1549066942906	2751844.00	82.00	-6.25	7.09	2.40	-6.35	7.05	2.46	-0.98	-0.77	-1.47	1006.19	4.00
1549066942952	2763829.00	82.00	-6.24	7.08	2.42	-6.35	7.06	2.46	-0.84	-0.70	-1.54	1006.19	8.00
1549066943006	2776328.00	82.00	-6.28	7.12	2.39	-6.34	7.06	2.46	0.70	-1.05	-1.96	1006.19	38.00
1549066943054	2782845.00	83.00	-6.27	7.09	2.47	-6.34	7.06	2.47	-1.26	-1.19	-2.03	1006.19	40.00
1549066943108	2772264.00	82.00	-6.28	7.07	2.38	-6.35	7.06	2.46	-1.40	-1.12	-1.75	1006.19	41.00
1549066943155	2756245.00	82.00	-6.30	7.11	2.42	-6.35	7.06	2.47	-0.84	-1.12	-1.96	1006.19	45.00
1549066943211	2748265.00	82.00	-6.30	7.10	2.36	-6.35	7.06	2.46	-1.05	-0.84	-1.68	1006.19	32.00
1549066943259	2752735.00	82.00	-6.29	7.07	2.43	-6.35	7.05	2.46	-1.12	-1.05	-1.75	1006.19	115.00
1549066943315	2764273.00	82.00	-6.28	7.06	2.37	-6.35	7.05	2.46	-1.05	-1.05	-1.75	1006.19	39.00
1549066943360	2776120.00	82.00	-6.28	7.07	2.41	-6.36	7.05	2.47	-1.61	-1.12	-1.68	1006.19	46.00
1549066943416	2786560.00	82.00	-6.31	7.07	2.42	-6.36	7.05	2.47	-1.47	-1.12	-1.68	1006.19	38.00
1549066943462	2795885.00	83.00	-6.28	7.08	2.48	-6.36	7.04	2.48	-1.26	-1.05	-1.75	1006.19	4.00
1549066943517	2805861.00	82.00	-6.34	7.05	2.43	-6.36	7.04	2.48	-1.05	-0.91	-1.61	1006.19	23.00
1549066943565	2830009.00	82.00	-6.29	7.08	2.46	-6.36	7.04	2.48	-0.77	-0.70	-1.47	1006.19	4.00
1549066943624	2843791.00	82.00	-6.30	7.09	2.49	-6.36	7.04	2.49	-1.12	-0.56	-1.26	1006.19	48.00
1549066943667	2856782.00	82.00	-6.29	7.04	2.43	-6.36	7.04	2.49	-1.33	-0.35	-0.98	1006.19	37.00
1549066943721	2867860.00	82.00	-6.33	7.08	2.48	-6.36	7.04	2.49	-0.14	-0.63	-1.61	1006.19	43.00
1549066943769	2861987.00	83.00	-6.30	7.11	2.40	-6.36	7.04	2.48	-0.49	-0.63	-1.61	1006.19	61.00
1549066943825	2844826.00	83.00	-6.31	7.11	2.41	-6.36	7.04	2.48	-1.54	-0.56	-1.40	1006.18	36.00
1549066943871	2829467.00	82.00	-6.27	7.04	2.41	-6.36	7.04	2.48	-1.61	-0.63	-1.54	1006.18	25.00
1549066943925	2822185.00	82.00	-6.33	7.09	2.44	-6.37	7.03	2.48	-1.26	-0.42	-1.40	1006.18	10.00
1549066943974	2823532.00	82.00	-6.31	7.07	2.51	-6.37	7.03	2.49	-1.33	-0.56	-1.54	1006.18	57.00
1549066944030	2829506.00	82.00	-6.31	7.08	2.45	-6.37	7.03	2.49	-0.63	-0.49	-1.33	1006.18	62.00
1549066944075	2835635.00	82.00	-6.27	7.14	2.45	-6.36	7.04	2.49	-0.77	-0.56	-1.26	1006.18	29.00
1549066944130	2840388.00	82.00	-6.31	7.03	2.47	-6.36	7.03	2.49	-1.33	-0.35	-1.12	1006.18	7.00
1549066944179	2845811.00	82.00	-6.29	7.11	2.40	-6.36	7.04	2.48	-0.14	-0.14	-0.91	1006.18	8.00
1549066944232	2852613.00	82.00	-6.28	7.09	2.44	-6.36	7.04	2.49	-1.96	-0.14	-0.98	1006.18	61.00
1549066944280	2861995.00	82.00	-6.30	7.08	2.47	-6.36	7.03	2.49	-2.24	-0.56	-1.26	1006.19	11.00
1549066944336	2873097.00	82.00	-6.31	7.11	2.47	-6.37	7.03	2.50	-2.59	-0.77	-1.40	1006.19	15.00
1549066944383	2884330.00	82.00	-6.29	7.01	2.51	-6.37	7.02	2.51	-2.87	-0.35	-0.84	1006.19	17.00
1549066944437	2894598.00	82.00	-6.23	7.00	2.45	-6.37	7.02	2.52	-1.26	-0.70	-1.26	1006.19	49.00
1549066944485	2900635.00	82.00	-6.33	7.09	2.40	-6.37	7.02	2.51	-1.75	-1.26	-2.24	1006.19	0.00
1549066944539	2890496.00	83.00	-6.34	7.29	2.52	-6.37	7.02	2.52	-3.64	-0.42	-1.26	1006.19	4.00
1549066944587	2870037.00	83.00	-6.27	7.32	2.60	-6.36	7.02	2.54	-4.97	0.35	-0.35	1006.19	9.00
1549066944640	2851815.00	82.00	-6.28	6.96	2.59	-6.37	7.01	2.56	-4.06	0.84	0.14	1006.19	50.00
1549066944689	2839674.00	82.00	-6.12	6.66	2.40	-6.38	7.00	2.55	-0.91	0.98	0.21	1006.19	21.00
1549066944746	2833539.00	82.00	-6.36	7.04	2.63	-6.39	6.98	2.57	-4.48	0.14	-2.31	1006.19	13.00
1549066944791	2833406.00	82.00	-6.29	7.14	2.50	-6.38	6.99	2.57	-2.24	-0.07	-0.77	1006.19	23.00
1549066944845	2831149.00	82.00	-6.25	7.18	2.56	-6.37	6.99	2.57	-3.22	1.40	0.91	1006.19	52.00
1549066944893	2829530.00	83.00	-6.21	7.02	2.59	-6.37	7.00	2.58	-1.12	1.12	0.56	1006.19	10.00
1549066944947	2829883.00	83.00	-6.15	7.00	2.51	-6.35	7.01	2.57	1.05	0.91	-0.35	1006.19	46.00
1549066944995	2833696.00	82.00	-6.23	7.13	2.54	-6.35	7.02	2.56	0.14	0.84	-1.54	1006.19	72.00
1549066945049	2841162.00	82.00	-6.30	7.12	2.58	-6.35	7.02	2.57	-1.61	0.63	-1.61	1006.19	17.00
1549066945097	2849849.00	82.00	-6.31	7.08	2.55	-6.35	7.02	2.57	-0.77	0.84	-0.84	1006.19	38.00
1549066945151	2857840.00	82.00	-6.31	7.11	2.50	-6.35	7.02	2.55	1.26	0.70	-1.05	1006.19	18.00
1549066945200	2867061.00	82.00	-6.33	7.12	2.45	-6.35	7.03	2.54	0.91	-0.42	-1.33	1006.19	34.00
1549066945255	2864330.00	83.00	-6.25	7.10	2.39	-6.34	7.04	2.53	-0.77	-0.28	-0.56	1006.19	14.00
1549066945301	2845354.00	83.00	-6.17	7.14	2.41	-6.33	7.05	2.52	-1.12	0.42	-0.49	1006.19	30.00
1549066945355	2824902.00	82.00	-6.21	7.18	2.42	-6.33	7.06	2.51	-1.40	0.98	-0.63	1006.19	7.00
1549066945403	2813597.00	82.00	-6.26	7.12	2.46	-6.33	7.05	2.51	-1.89	0.70	-1.05	1006.19	3.00
1549066945457	2811773.00	82.00	-6.30	7.11	2.43	-6.34	7.05	2.50	-0.91	-0.07	-1.40	1006.19	49.00
1549066945509	2815551.00	82.00	-6.25	7.06	2.43	-6.34	7.05	2.50	-1.19	-0.14	-1.19	1006.19	5.00
1549066945560	2819206.00	82.00	-6.30	7.07	2.41	-6.34	7.05	2.50	-1.26	-0.28	-1.26	1006.19	17.00
1549066945608	2820278.00	82.00	-6.23	7.20	2.41	-6.34	7.06	2.49	-1.12	0.42	-0.70	1006.19	41.00
1549066945662	2821751.00	82.00	-6.16	7.15	2.47	-6.33	7.06	2.49	-1.54	1.54	-0.42	1006.19	10.00
1549066945710	2824195.00	82.00	-6.21	7.04	2.52	-6.33	7.06	2.50	-0.77	0.77	-0.49	1006.19	9.00
1549066945766	2829108.00	82.00	-6.24	7.08	2.40	-6.33	7.07	2.49	0.14	-0.91	-1.89	1006.19	2.00
1549066945812	2838791.00	82.00	-6.38	7.16	2.32	-6.33	7.07	2.47	0.77	-0.42	-1.75	1006.19	63.00
1549066945866	2847112.00	82.00	-6.29	7.18	2.37	-6.33	7.08	2.45	1.33	-0.56	-1.26	1006.19	18.00
1549066945914	2836110.00	82.00	-6.17	7.14	2.45	-6.32	7.09	2.46	-1.33	-0.98	-0.91	1006.19	16.00
1549066945969	2813344.00	82.00	-6.16	7.14	2.49	-6.30	7.09	2.47	-1.19	-1.68	-1.12	1006.19	75.00
1549066946017	2795035.00	82.00	-6.14	7.10	2.47	-6.30	7.10	2.49	-0.98	-2.66	-2.31	1006.19	21.00
1549066946070	2789216.00	82.00	-6.29	7.15	2.45	-6.29	7.10	2.49	-0.56	-2.80	-2.38	1006.19	18.00
1549066946118	2793878.00	82.00	-6.33	7.11	2.46	-6.29	7.10	2.49	0.91	-2.17	-1.54	1006.19	27.00
1549066946175	2800797.00	82.00	-6.30	7.16	2.38	-6.29	7.10	2.48	0.70	-1.19	-0.98	1006.19	28.00
1549066946220	2805289.00	82.00	-6.26	7.16	2.45	-6.29	7.10	2.48	-1.33	-0.84	-0.77	1006.19	2.00
1549066946275	2807966.00	82.00	-6.21	7.09	2.45	-6.29	7.10	2.49	-1.40	-1.05	-0.98	1006.19	52.00
1549066946322	2810965.00	82.00	-6.23	7.10	2.50	-6.29	7.10	2.50	-1.33	-1.40	-1.47	1006.19	36.00
1549066946377	2815797.00	83.00	-6.25	7.14	2.46	-6.29	7.10	2.50	-0.49	-1.33	-1.26	1006.19	13.00
1549066946425	2822270.00	83.00	-6.23	7.19	2.45	-6.27	7.11	2.49	0.21	-0.84	0.28	1006.19	26.00
1549066946479	2829335.00	82.00	-6.15	7.16	2.40	-6.26	7.13	2.49	-0.14	-0.63	0.56	1006.19	10.00
1549066946527	2832702.00	82.00	-6.17	7.18	2.44	-6.25	7.14	2.48	1.33	-0.91	0.28	1006.19	20.00
1549066946581	2817757.00	82.00	-6.17	7.17	2.40	-6.23	7.16	2.47	1.68	-0.84	1.26	1006.19	26.00
1549066946629	2790529.00	82.00	-6.09	7.27	2.42	-6.20	7.18	2.46	0.70	-0.63	1.89	1006.19	14.00
1549066946683	2766962.00	82.00	-6.15	7.21	2.39	-6.18	7.21	2.45	1.54	-0.63	3.36	1006.19	55.00
1549066946731	2754353.00	83.00	-6.13	7.33	2.31	-6.15	7.24	2.43	1.05	-0.21	4.83	1006.19	44.00
1549066946785	2753199.00	83.00	-6.01	7.33	2.36	-6.11	7.27	2.42	0.77	-0.14	5.88	1006.19	6.00
1549066946837	2755977.00	82.00	-5.96	7.32	2.38	-6.08	7.31	2.42	0.21	-0.63	5.39	1006.19	29.00
1549066946888	2755992.00	82.00	-5.92	7.36	2.29	-6.05	7.33	2.41	-0.21	-0.28	3.64	1006.19	27.00
1549066946935	2754650.00	82.00	-5.94	7.45	2.30	-6.03	7.35	2.40	-0.84	-0.49	2.66	1006.19	22.00
1549066946989	2754072.00	82.00	-5.93	7.46	2.33	-6.02	7.36	2.40	-2.24	-0.49	0.49	1006.19	8.00
1549066947037	2758121.00	82.00	-5.89	7.43	2.32	-6.01	7.37	2.40	-1.26	-0.56	0.14	1006.19	9.00
1549066947091	2764465.00	83.00	-5.92	7.45	2.31	-6.01	7.37	2.39	-1.40	-0.84	-0.56	1006.19	37.00
1549066947139	2771999.00	83.00	-5.93	7.37	2.27	-6.01	7.37	2.39	-2.38	-0.77	-0.91	1006.19	62.00
1549066947196	2779116.00	83.00	-5.94	7.46	2.42	-6.02	7.36	2.40	-2.66	-0.21	-2.45	1006.20	17.00
1549066947242	2774048.00	83.00	-5.93	7.33	2.42	-6.03	7.35	2.42	-3.08	-0.42	-2.94	1006.20	14.00
1549066947296	2755853.00	83.00	-5.95	7.35	2.23	-6.06	7.32	2.41	-4.34	0.42	-4.62	1006.20	13.00
1549066947344	2739235.00	83.00	-6.15	7.29	2.47	-6.11	7.27	2.44	-6.58	0.21	-6.37	1006.19	13.00
1549066947398	2735450.00	83.00	-6.02	7.37	2.58	-6.12	7.26	2.47	-3.92	0.70	-3.71	1006.19	2.00
1549066947446	2739907.00	83.00	-5.86	7.53	2.57	-6.11	7.26	2.48	-1.47	1.26	-3.71	1006.19	49.00
1549066947502	2745134.00	83.00	-5.74	7.42	2.31	-6.07	7.30	2.46	1.33	-0.63	-0.07	1006.19	3.00
1549066947549	2758313.00	83.00	-5.89	7.30	2.23	-6.08	7.30	2.44	-1.96	1.61	-1.47	1006.19	33.00
1549066947603	2769377.00	83.00	-6.07	7.29	2.46	-6.11	7.27	2.45	-4.55	3.15	-2.52	1006.19	70.00
1549066947651	2784460.00	83.00	-6.26	7.38	2.64	-6.13	7.24	2.48	-4.41	0.07	-3.08	1006.19	69.00
1549066947705	2798029.00	83.00	-6.14	7.33	2.33	-6.14	7.24	2.47	-1.75	-1.54	-1.82	1006.18	25.00
1549066947754	2808073.00	83.00	-6.07	7.28	2.40	-6.14	7.23	2.47	-3.43	0.49	-0.42	1006.18	91.00
1549066947807	2816787.00	83.00	-5.92	7.25	2.49	-6.14	7.23	2.48	-3.01	2.94	0.07	1006.18	33.00
1549066947855	2822519.00	83.00	-5.88	7.38	2.47	-6.12	7.25	2.46	2.94	3.78	0.35	1006.18	85.00
1549066947909	2819443.00	83.00	-5.91	7.46	2.42	-6.10	7.28	2.44	2.66	4.48	1.68	1006.18	35.00
1549066947958	2814271.00	83.00	-5.85	7.34	2.43	-6.08	7.31	2.42	2.80	4.13	1.89	1006.18	72.00
1549066948012	2814721.00	83.00	-5.97	7.36	2.27	-6.06	7.33	2.39	3.15	1.61	0.91	1006.18	81.00
1549066948060	2825058.00	83.00	-6.08	7.49	2.14	-6.04	7.36	2.35	3.50	-1.33	1.47	1006.18	49.00
1549066948115	2842788.00	83.00	-6.16	7.43	2.22	-6.02	7.39	2.33	3.08	-3.08	3.29	1006.18	25.00
1549066948162	2857274.00	83.00	-5.88	7.43	2.24	-5.97	7.43	2.31	4.76	-0.42	5.46	1006.18	2.00
1549066948215	2866728.00	83.00	-5.74	7.46	2.13	-5.92	7.48	2.27	4.97	1.12	6.30	1006.18	10.00
1549066948263	2875180.00	83.00	-5.69	7.69	2.07	-5.87	7.54	2.23	4.62	1.47	4.69	1006.18	54.00
1549066948317	2887154.00	83.00	-5.82	7.68	2.06	-5.85	7.56	2.20	1.40	1.96	3.64	1006.18	28.00
1549066948366	2901732.00	83.00	-5.81	7.73	2.12	-5.84	7.57	2.19	-1.05	1.40	1.75	1006.17	24.00
1549066948420	2917084.00	83.00	-5.81	7.68	2.15	-5.81	7.59	2.18	0.42	-0.28	3.43	1006.17	81.00
1549066948468	2930954.00	84.00	-5.59	7.66	2.03	-5.76	7.64	2.15	4.48	-0.21	5.60	1006.17	50.00
1549066948522	2944238.00	84.00	-5.64	7.68	2.00	-5.71	7.69	2.11	6.79	0.21	5.18	1006.17	23.00
1549066948570	2956334.00	84.00	-5.59	7.76	1.87	-5.66	7.74	2.06	6.65	0.63	3.78	1006.17	4.00
1549066948626	2969956.00	84.00	-5.43	7.79	1.70	-5.61	7.80	1.99	7.56	1.05	4.76	1006.17	42.00
1549066948672	2986169.00	84.00	-5.41	7.89	1.61	-5.53	7.87	1.91	10.01	1.68	5.88	1006.17	14.00
1549066948726	3007012.00	84.00	-5.30	7.97	1.49	-5.47	7.94	1.82	10.43	2.94	4.90	1006.17	29.00
1549066948775	3029748.00	84.00	-5.25	8.10	1.37	-5.39	8.01	1.71	11.48	4.13	5.25	1006.17	37.00
1549066948828	3050777.00	84.00	-5.19	8.16	1.29	-5.30	8.09	1.61	12.46	4.83	6.93	1006.17	13.00
1549066948876	3067602.00	84.00	-5.35	8.04	1.34	-5.22	8.16	1.52	13.16	4.13	7.70	1006.17	56.00
1549066948930	3083885.00	84.00	-5.28	8.08	1.23	-5.15	8.22	1.43	12.88	3.92	5.81	1006.18	40.00
1549066948979	3099220.00	84.00	-5.25	8.16	1.07	-5.10	8.27	1.35	10.08	1.40	2.45	1006.18	12.00
1549066949032	3115596.00	84.00	-5.30	8.37	0.88	-4.99	8.35	1.22	16.87	2.24	4.41	1006.18	0.00
1549066949080	3130048.00	84.00	-5.19	8.47	0.64	-4.88	8.44	1.09	15.26	0.70	2.94	1006.18	9.00
1549066949136	3137821.00	84.00	-5.41	8.88	0.90	-4.76	8.52	1.00	16.10	0.70	3.57	1006.17	26.00
1549066949186	3142960.00	84.00	-5.43	8.65	1.42	-4.71	8.54	1.05	2.03	-13.37	9.38	1006.17	29.00
1549066949237	3139139.00	84.00	-5.13	8.37	1.41	-4.55	8.61	1.17	-4.20	-48.02	17.15	1006.17	8.00
1549066949285	3120592.00	84.00	-4.17	9.73	1.28	-4.03	8.85	1.26	10.01	-99.89	31.01	1006.17	43.00
1549066949339	3074639.00	84.00	-3.12	10.62	1.71	-3.79	8.91	1.55	-27.37	-103.88	22.26	1006.17	48.00
1549066949388	3009268.00	84.00	-4.35	9.40	2.76	-4.10	8.60	2.33	-132.51	-66.92	13.30	1006.17	12.00
1549066949441	2938651.00	84.00	-4.16	5.97	5.10	-4.48	7.98	3.52	-175.91	-73.57	-2.52	1006.17	19.00
1549066949490	2874077.00	84.00	-3.60	5.35	4.50	-4.44	7.78	3.98	-58.45	-50.54	5.95	1006.17	22.00
1549066949547	2810999.00	84.00	-3.40	5.81	4.03	-4.42	7.78	4.00	11.48	0.84	-1.33	1006.17	28.00
1549066949593	2808030.00	84.00	-3.76	6.83	4.17	-4.42	7.88	3.80	46.20	42.49	2.24	1006.17	7.00
1549066949646	2822342.00	84.00	-3.81	8.56	3.31	-4.38	8.06	3.47	47.18	48.44	0.28	1006.17	0.00
1549066949695	2859829.00	84.00	-4.25	8.76	3.38	-4.44	8.07	3.36	5.11	35.63	-5.32	1006.17	41.00
1549066949748	2897187.00	84.00	-4.17	8.17	4.25	-4.44	8.04	3.44	-7.42	15.05	-0.56	1006.17	15.00
1549066949797	2917798.00	85.00	-4.02	8.02	4.35	-4.40	8.02	3.52	-2.87	10.78	3.15	1006.17	17.00
1549066949850	2926567.00	85.00	-4.01	8.14	3.95	-4.33	8.08	3.49	13.51	8.40	4.48	1006.17	41.00
1549066949899	2927228.00	84.00	-3.81	8.22	3.58	-4.24	8.15	3.44	14.00	4.69	4.55	1006.17	43.00
1549066949953	2925824.00	84.00	-3.69	8.30	3.39	-4.17	8.20	3.40	6.72	3.64	1.89	1006.17	19.00
1549066950001	2924485.00	84.00	-3.92	8.19	3.30	-4.12	8.24	3.35	10.15	1.89	1.68	1006.17	9.00
1549066950056	2923487.00	85.00	-3.91	8.28	3.15	-4.06	8.32	3.23	22.26	3.15	3.78	1006.17	40.00
1549066950103	2923467.00	85.00	-3.90	8.54	2.78	-3.96	8.44	3.04	31.99	3.92	4.83	1006.17	50.00
1549066950158	2923888.00	85.00	-3.94	8.71	2.61	-3.87	8.56	2.83	35.00	6.23	4.62	1006.17	4.00
1549066950205	2923104.00	85.00	-4.10	8.26	2.36	-3.89	8.58	2.72	13.37	4.69	-1.75	1006.17	25.00
1549066950258	2921555.00	85.00	-3.98	8.86	2.52	-3.89	8.61	2.64	9.73	6.44	-1.96	1006.17	45.00
1549066950308	2922707.00	84.00	-3.62	9.16	2.48	-3.85	8.65	2.55	11.41	7.84	-2.87	1006.17	18.00
1549066950361	2925728.00	85.00	-3.81	8.65	2.71	-3.86	8.64	2.56	-0.07	6.65	-2.10	1006.16	39.00
1549066950410	2928014.00	85.00	-3.96	7.96	2.52	-3.93	8.59	2.62	-8.40	-1.19	-2.17	1006.16	39.00
1549066950463	2929908.00	85.00	-4.24	8.05	2.45	-4.02	8.54	2.65	-6.30	-4.34	-6.86	1006.16	11.00
1549066950512	2932234.00	85.00	-4.34	8.70	2.38	-4.10	8.50	2.67	-10.36	-1.82	-8.40	1006.16	17.00
1549066950565	2932139.00	85.00	-4.25	8.76	2.64	-4.18	8.44	2.74	-17.85	0.35	-6.72	1006.16	54.00
1549066950614	2930160.00	85.00	-4.09	8.56	2.84	-4.22	8.40	2.80	-13.16	2.94	-4.13	1006.16	19.00
1549066950667	2928094.00	85.00	-3.83	8.83	2.64	-4.17	8.44	2.75	5.53	4.06	-0.14	1006.16	3.00
1549066950716	2927222.00	85.00	-3.79	8.44	2.44	-4.11	8.49	2.67	10.85	1.61	-0.35	1006.16	21.00
1549066950769	2927201.00	85.00	-3.96	8.54	2.21	-4.09	8.52	2.60	5.39	-0.77	-0.98	1006.16	49.00
1549066950822	2927012.00	85.00	-4.16	8.52	2.21	-4.11	8.53	2.57	-0.42	-1.33	-1.82	1006.16	5.00
1549066950872	2924389.00	85.00	-4.18	8.43	2.36	-4.14	8.51	2.57	-4.20	-0.49	-2.31	1006.16	28.00
1549066950922	2919899.00	85.00	-4.19	8.49	2.55	-4.17	8.49	2.59	-5.04	0.56	-2.24	1006.17	48.00
1549066950975	2915327.00	85.00	-4.09	8.45	2.69	-4.19	8.47	2.62	-3.43	0.70	-2.80	1006.17	12.00
1549066951024	2911424.00	85.00	-4.21	8.41	2.69	-4.21	8.46	2.64	-2.24	0.70	-2.31	1006.17	42.00
1549066951075	2908607.00	85.00	-4.09	8.44	2.67	-4.21	8.45	2.65	-1.05	-0.56	-1.33	1006.17	34.00
1549066951125	2905052.00	85.00	-4.10	8.52	2.72	-4.20	8.45	2.66	-1.33	-1.47	-2.31	1006.17	7.00
1549066951178	2897514.00	85.00	-4.17	8.53	2.51	-4.20	8.46	2.65	0.28	-1.89	-1.33	1006.17	26.00
1549066951228	2886260.00	85.00	-4.08	8.47	2.54	-4.20	8.46	2.65	-1.12	-1.33	-1.54	1006.17	53.00
1549066951280	2874391.00	85.00	-4.10	8.43	2.52	-4.21	8.45	2.66	-3.36	-2.03	-3.08	1006.16	5.00
1549066951331	2864220.00	85.00	-4.14	8.56	2.42	-4.22	8.44	2.65	-3.15	-2.31	-4.27	1006.16	33.00
1549066951382	2857038.00	85.00	-4.34	8.22	2.51	-4.27	8.42	2.66	-3.50	-1.96	-4.69	1006.16	31.00
1549066951432	2851468.00	85.00	-4.29	8.51	2.62	-4.30	8.39	2.68	-5.53	-0.56	-4.97	1006.16	21.00
1549066951485	2845994.00	85.00	-4.17	8.29	2.74	-4.32	8.37	2.72	-4.69	-0.56	-3.43	1006.16	8.00
1549066951535	2833441.00	85.00	-4.26	8.54	2.53	-4.33	8.38	2.71	-2.03	-0.91	-2.52	1006.16	13.00
1549066951587	2827080.00	85.00	-4.29	8.43	2.79	-4.32	8.37	2.72	-1.19	0.91	0.42	1006.16	55.00
1549066951637	2821048.00	85.00	-4.17	7.98	2.76	-4.34	8.35	2.76	-6.23	-0.84	-0.07	1006.16	25.00
1549066951689	2817161.00	85.00	-4.31	8.61	2.66	-4.35	8.34	2.77	-7.21	-0.84	-0.77	1006.16	31.00
1549066951739	2810806.00	85.00	-4.20	8.49	2.80	-4.34	8.34	2.78	-2.31	0.98	-1.19	1006.16	11.00
1549066951791	2796262.00	85.00	-4.12	8.37	2.83	-4.32	8.35	2.79	-0.56	0.98	-0.84	1006.16	26.00
1549066951841	2775855.00	85.00	-4.13	8.45	2.74	-4.31	8.36	2.79	0.49	0.49	-0.70	1006.16	9.00
1549066951893	2756789.00	85.00	-4.14	8.33	2.72	-4.30	8.36	2.79	-1.68	-0.07	-1.26	1006.16	58.00
1549066951943	2741415.00	85.00	-4.17	8.31	2.73	-4.30	8.35	2.80	-4.13	-0.56	-0.84	1006.16	43.00
1549066951995	2731241.00	85.00	-4.24	8.33	2.82	-4.32	8.34	2.83	-4.97	-0.07	-1.26	1006.16	42.00
1549066952045	2723729.00	85.00	-4.24	8.40	2.85	-4.32	8.33	2.84	-2.87	0.42	-1.26	1006.16	10.00
1549066952098	2715814.00	85.00	-4.19	8.39	2.82	-4.31	8.33	2.85	-1.19	0.77	-1.12	1006.16	1.00
1549066952147	2707480.00	85.00	-4.18	8.34	2.84	-4.31	8.34	2.85	-0.28	0.77	-0.56	1006.16	42.00
1549066952199	2699558.00	85.00	-4.12	8.32	2.80	-4.30	8.34	2.85	-0.63	0.35	-1.33	1006.16	16.00
1549066952249	2693403.00	85.00	-4.19	8.35	2.78	-4.31	8.34	2.85	-1.40	0.07	-3.01	1006.16	38.00
1549066952301	2688488.00	85.00	-4.23	8.28	2.83	-4.32	8.32	2.87	-2.80	-0.35	-3.08	1006.16	35.00
1549066952352	2684719.00	85.00	-4.23	8.37	2.83	-4.33	8.32	2.87	-2.03	-0.14	-3.01	1006.16	-5.00
1549066952406	2679525.00	85.00	-4.28	8.36	2.79	-4.34	8.32	2.87	-0.07	-0.49	-2.87	1006.16	68.00
1549066952453	2666449.00	85.00	-4.28	8.38	2.74	-4.33	8.32	2.85	-0.07	0.07	-0.07	1006.17	80.00
1549066952506	2648321.00	85.00	-4.29	8.27	2.75	-4.33	8.33	2.84	0.28	0.56	0.28	1006.17	17.00
1549066952555	2633161.00	85.00	-4.24	8.28	2.73	-4.33	8.33	2.83	0.28	0.98	-0.84	1006.17	12.00
1549066952608	2623414.00	85.00	-4.16	8.31	2.72	-4.33	8.33	2.83	-1.68	1.33	-0.91	1006.17	34.00
1549066952657	2617688.00	85.00	-4.21	8.36	2.78	-4.33	8.33	2.83	-1.68	0.70	-1.12	1006.17	32.00
1549066952711	2613894.00	85.00	-4.27	8.33	2.75	-4.33	8.33	2.83	-0.49	-0.70	-0.63	1006.17	20.00
1549066952760	2610212.00	85.00	-4.26	8.29	2.71	-4.33	8.33	2.83	-1.68	-0.63	-0.91	1006.17	15.00
1549066952812	2607487.00	86.00	-4.24	8.27	2.65	-4.34	8.33	2.82	-2.59	0.63	-1.96	1006.18	14.00
1549066952862	2605447.00	86.00	-4.30	8.20	2.65	-4.36	8.32	2.81	-0.07	2.52	-2.80	1006.18	8.00
1549066952916	2606009.00	85.00	-4.34	8.28	2.57	-4.39	8.32	2.78	1.05	4.27	-4.06	1006.18	32.00
1549066952964	2609280.00	85.00	-4.35	8.32	2.62	-4.42	8.31	2.75	0.77	6.23	-4.41	1006.18	33.00
1549066953016	2614118.00	85.00	-4.34	8.32	2.72	-4.45	8.30	2.73	1.68	5.95	-5.95	1006.18	33.00
1549066953066	2618991.00	85.00	-4.37	8.42	2.67	-4.47	8.30	2.71	2.66	4.83	-6.30	1006.18	25.00
1549066953118	2619440.00	85.00	-4.37	8.77	2.78	-4.46	8.30	2.70	0.14	3.36	-3.57	1006.18	51.00
1549066953168	2616953.00	85.00	-4.37	8.43	2.81	-4.46	8.30	2.73	-3.50	0.84	0.42	1006.18	58.00
1549066953221	2612930.00	85.00	-4.39	8.22	2.67	-4.45	8.30	2.72	1.12	-0.35	-0.07	1006.17	50.00
1549066953270	2610370.00	85.00	-4.50	8.05	2.52	-4.49	8.29	2.71	0.91	-2.03	-5.04	1006.18	110.00
1549066953325	2610775.00	85.00	-4.54	8.04	2.41	-4.55	8.26	2.70	-0.84	0.21	-10.43	1006.18	70.00
1549066953373	2615683.00	85.00	-4.61	8.37	2.58	-4.61	8.22	2.69	-1.54	3.43	-11.62	1006.18	43.00
1549066953425	2625895.00	85.00	-4.74	8.71	2.79	-4.64	8.20	2.73	-9.66	-0.28	-3.85	1006.18	11.00
1549066953474	2633686.00	85.00	-4.73	8.42	2.58	-4.63	8.21	2.71	-1.12	-2.17	2.94	1006.18	1.00
1549066953527	2641503.00	85.00	-4.51	8.09	2.29	-4.59	8.25	2.63	8.54	0.28	3.08	1006.18	0.00
1549066953577	2647387.00	85.00	-4.50	8.02	2.22	-4.60	8.27	2.57	4.13	1.96	-0.42	1006.18	23.00
1549066953630	2651302.00	85.00	-4.53	8.07	2.48	-4.63	8.25	2.59	-3.99	1.96	-3.50	1006.18	41.00
1549066953679	2653388.00	85.00	-4.63	8.25	2.87	-4.67	8.21	2.65	-6.86	-0.35	-5.39	1006.18	15.00
1549066953731	2653941.00	85.00	-4.65	8.33	2.86	-4.69	8.18	2.69	-4.97	-1.82	-5.39	1006.18	25.00
1549066953781	2654850.00	85.00	-4.61	8.24	2.65	-4.70	8.17	2.70	-1.61	-2.03	-4.34	1006.18	23.00
1549066953835	2658077.00	85.00	-4.73	8.26	2.46	-4.71	8.18	2.67	0.98	-0.84	-2.94	1006.18	4.00
1549066953885	2663971.00	85.00	-4.75	8.22	2.38	-4.72	8.18	2.64	1.61	-0.28	-1.75	1006.18	22.00
1549066953936	2670150.00	85.00	-4.69	8.19	2.46	-4.72	8.18	2.62	-0.28	0.35	-1.33	1006.18	91.00
1549066953986	2676142.00	85.00	-4.65	8.20	2.48	-4.73	8.19	2.61	-0.98	0.77	-1.26	1006.18	2.00
1549066954039	2680851.00	85.00	-4.60	8.11	2.63	-4.73	8.18	2.62	-1.82	0.42	-1.33	1006.18	29.00
1549066954087	2683646.00	85.00	-4.63	8.12	2.69	-4.74	8.17	2.65	-2.66	-0.63	-2.52	1006.18	65.00
1549066954140	2686335.00	85.00	-4.70	8.21	2.66	-4.75	8.15	2.67	-3.64	-1.26	-3.29	1006.18	0.00
1549066954189	2688898.00	85.00	-4.72	8.22	2.68	-4.76	8.14	2.68	-3.22	-1.61	-2.24	1006.18	7.00
1549066954242	2691659.00	85.00	-4.78	8.18	2.62	-4.77	8.14	2.68	0.28	-0.91	-2.24	1006.18	100.00
1549066954291	2695179.00	85.00	-4.68	8.17	2.43	-4.76	8.16	2.64	2.38	0.21	0.35	1006.18	1.00
1549066954346	2698896.00	85.00	-4.65	8.16	2.55	-4.75	8.16	2.63	0.49	0.07	-1.12	1006.18	31.00
1549066954394	2702370.00	85.00	-4.66	8.20	2.57	-4.75	8.16	2.63	-1.33	-0.14	-1.12	1006.18	29.00
1549066954446	2703626.00	85.00	-4.64	8.17	2.61	-4.75	8.16	2.64	-3.08	-0.49	-0.77	1006.18	35.00
1549066954495	2703083.00	85.00	-4.65	8.19	2.63	-4.75	8.16	2.65	-1.82	-0.42	-0.70	1006.18	15.00
1549066954548	2702932.00	85.00	-4.65	8.20	2.55	-4.75	8.16	2.65	-1.54	0.14	-1.26	1006.19	22.00
1549066954597	2703105.00	85.00	-4.72	8.21	2.53	-4.76	8.16	2.64	-0.35	0.70	-1.89	1006.19	27.00
1549066954650	2704086.00	85.00	-4.70	8.22	2.58	-4.76	8.16	2.63	-0.14	0.63	-1.75	1006.19	51.00
1549066954699	2704807.00	85.00	-4.71	8.15	2.52	-4.76	8.16	2.63	-1.12	0.21	-0.77	1006.19	25.00
1549066954753	2704516.00	85.00	-4.64	8.20	2.51	-4.76	8.16	2.62	-1.26	0.28	-0.63	1006.19	8.00
1549066954802	2703980.00	85.00	-4.64	8.16	2.52	-4.76	8.17	2.62	-1.05	0.28	-1.05	1006.19	23.00
1549066954855	2703091.00	85.00	-4.66	8.14	2.54	-4.76	8.16	2.62	-1.61	0.28	-1.40	1006.19	59.00
1549066954904	2702307.00	86.00	-4.63	8.16	2.55	-4.76	8.16	2.62	-1.40	0.35	-1.19	1006.19	35.00
1549066954957	2700984.00	86.00	-4.66	8.20	2.61	-4.76	8.16	2.62	-1.26	0.56	-0.91	1006.19	40.00
1549066955007	2699593.00	86.00	-4.69	8.18	2.55	-4.76	8.17	2.61	0.28	-0.14	-1.47	1006.19	20.00
1549066955059	2698824.00	85.00	-4.65	8.24	2.52	-4.76	8.17	2.61	-0.63	-0.21	-1.05	1006.19	12.00
1549066955108	2697156.00	86.00	-4.66	8.17	2.53	-4.75	8.17	2.61	-0.98	-0.07	-0.98	1006.18	72.00
1549066955162	2696041.00	86.00	-4.68	8.17	2.52	-4.76	8.17	2.60	-0.98	-0.28	-1.40	1006.18	2.00
1549066955211	2695812.00	85.00	-4.61	8.17	2.51	-4.75	8.17	2.60	-1.05	-0.21	-1.19	1006.18	15.00
1549066955265	2696194.00	86.00	-4.66	8.18	2.54	-4.75	8.18	2.60	-0.14	-0.35	-1.54	1006.18	0.00
1549066955313	2696601.00	86.00	-4.69	8.17	2.51	-4.75	8.18	2.59	-0.14	-0.84	-1.54	1006.18	48.00
1549066955366	2697739.00	86.00	-4.64	8.19	2.49	-4.75	8.18	2.59	-0.28	-1.19	-1.54	1006.18	35.00
1549066955415	2699715.00	86.00	-4.63	8.16	2.47	-4.75	8.18	2.58	-1.12	-1.12	-1.40	1006.18	94.00
1549066955468	2702019.00	86.00	-4.71	8.19	2.59	-4.75	8.17	2.60	-2.66	-0.91	-1.40	1006.18	54.00
1549066955518	2704170.00	86.00	-4.66	8.17	2.59	-4.76	8.17	2.61	-1.47	-0.91	-1.54	1006.18	21.00
1549066955570	2705631.00	86.00	-4.67	8.15	2.55	-4.76	8.17	2.61	-1.05	-0.91	-1.26	1006.18	14.00
1549066955620	2707692.00	86.00	-4.63	8.16	2.49	-4.75	8.17	2.61	-1.12	-0.70	-1.12	1006.18	23.00
1549066955672	2709848.00	86.00	-4.70	8.20	2.57	-4.75	8.17	2.61	-0.84	-1.12	-1.82	1006.18	0.00
1549066955722	2712391.00	86.00	-4.66	8.22	2.51	-4.75	8.18	2.60	-0.14	-0.91	-1.47	1006.18	8.00
1549066955776	2713961.00	86.00	-4.68	8.18	2.54	-4.75	8.17	2.61	-1.61	-0.70	-1.05	1006.18	20.00
1549066955824	2714974.00	86.00	-4.66	8.20	2.55	-4.75	8.17	2.61	-1.82	-0.70	-1.19	1006.18	27.00
1549066955876	2715509.00	86.00	-4.65	8.20	2.53	-4.75	8.17	2.61	-1.26	-0.42	-1.19	1006.18	4.00
1549066955926	2716767.00	86.00	-4.68	8.15	2.60	-4.75	8.17	2.62	-1.61	-0.63	-1.61	1006.18	19.00
1549066955979	2718335.00	86.00	-4.64	8.20	2.58	-4.75	8.17	2.62	-1.26	-0.70	-1.40	1006.18	61.00
1549066956032	2719418.00	87.00	-4.66	8.16	2.56	-4.75	8.17	2.62	-1.26	-0.63	-1.05	1006.18	25.00
1549066956081	2719993.00	87.00	-4.65	8.20	2.56	-4.75	8.17	2.62	-1.40	-0.49	-1.26	1006.18	25.00
1549066956131	2720394.00	86.00	-4.63	8.15	2.53	-4.75	8.17	2.62	-1.47	-0.56	-1.40	1006.18	51.00
1549066956182	2720802.00	86.00	-4.68	8.21	2.53	-4.75	8.17	2.62	-0.91	-0.56	-1.47	1006.18	5.00
1549066956232	2721669.00	87.00	-4.65	8.20	2.57	-4.75	8.17	2.62	-1.12	-0.56	-1.47	1006.18	29.00
1549066956286	2722629.00	87.00	-4.65	8.20	2.52	-4.75	8.17	2.62	-1.54	-0.42	-1.19	1006.18	83.00
1549066956334	2723200.00	87.00	-4.67	8.16	2.66	-4.75	8.17	2.63	-1.40	-0.84	-1.54	1006.18	35.00
1549066956387	2723492.00	87.00	-4.65	8.23	2.58	-4.74	8.17	2.63	-0.21	-0.84	-1.61	1006.18	19.00
1549066956436	2722309.00	87.00	-4.68	8.22	2.56	-4.74	8.17	2.63	-0.77	-0.63	-1.19	1006.18	35.00
1549066956489	2718703.00	87.00	-4.61	8.23	2.55	-4.74	8.17	2.63	-1.40	-0.56	-1.33	1006.18	22.00
1549066956538	2713840.00	87.00	-4.65	8.20	2.57	-4.74	8.17	2.63	-1.40	-0.35	-1.19	1006.18	13.00
1549066956591	2709920.00	87.00	-4.63	8.21	2.57	-4.74	8.17	2.63	-1.54	-0.56	-1.33	1006.18	41.00
1549066956640	2707370.00	87.00	-4.70	8.24	2.57	-4.74	8.17	2.63	-0.91	-0.63	-1.54	1006.18	51.00
1549066956695	2705897.00	87.00	-4.69	8.18	2.51	-4.74	8.17	2.62	-0.56	-0.63	-1.33	1006.18	39.00
1549066956743	2705076.00	87.00	-4.64	8.17	2.60	-4.74	8.17	2.63	-1.47	-0.42	-1.40	1006.18	26.00
1549066956795	2703579.00	87.00	-4.66	8.22	2.62	-4.74	8.17	2.64	-1.61	-0.49	-1.33	1006.18	23.00
1549066956844	2702193.00	87.00	-4.65	8.16	2.56	-4.74	8.17	2.64	-1.19	-0.49	-1.33	1006.18	17.00
1549066956897	2701061.00	88.00	-4.69	8.15	2.53	-4.75	8.17	2.63	-0.77	-0.49	-1.47	1006.18	66.00
1549066956945	2701274.00	88.00	-4.69	8.20	2.57	-4.75	8.17	2.63	-1.54	-0.49	-1.33	1006.19	41.00
1549066957000	2701256.00	88.00	-4.60	8.19	2.59	-4.74	8.17	2.63	-0.98	-0.35	-1.19	1006.19	11.00
1549066957048	2701074.00	88.00	-4.68	8.20	2.58	-4.75	8.17	2.63	-0.70	-0.63	-1.68	1006.19	28.00
1549066957101	2698462.00	88.00	-4.62	8.21	2.57	-4.74	8.17	2.63	-0.98	-0.49	-1.26	1006.19	13.00
1549066957150	2691147.00	88.00	-4.65	8.18	2.58	-4.74	8.17	2.64	-1.75	-0.49	-1.19	1006.19	34.00
1549066957206	2681208.00	88.00	-4.68	8.18	2.60	-4.75	8.16	2.64	-1.82	-0.21	-1.40	1006.19	59.00
1549066957252	2672423.00	88.00	-4.63	8.15	2.62	-4.75	8.16	2.65	-1.68	0.07	-1.19	1006.19	67.00
1549066957306	2665266.00	88.00	-4.67	8.15	2.59	-4.75	8.16	2.65	-1.05	0.07	-1.40	1006.19	18.00
1549066957358	2659658.00	88.00	-4.66	8.22	2.56	-4.75	8.16	2.64	-0.56	0.14	-1.05	1006.19	43.00
1549066957408	2654892.00	88.00	-4.66	8.19	2.57	-4.75	8.16	2.64	-1.47	0.35	-1.12	1006.19	32.00
1549066957456	2648620.00	88.00	-4.63	8.20	2.60	-4.75	8.16	2.64	-1.54	0.35	-1.26	1006.19	4.00
1549066957511	2634269.00	88.00	-4.64	8.19	2.55	-4.75	8.16	2.64	-1.19	0.14	-1.26	1006.19	33.00
1549066957559	2627849.00	88.00	-4.67	8.18	2.54	-4.75	8.16	2.63	-1.05	0.28	-1.40	1006.19	6.00
1549066957613	2622059.00	89.00	-4.69	8.24	2.62	-4.75	8.16	2.64	-1.68	0.21	-1.47	1006.18	36.00
1549066957661	2615968.00	88.00	-4.68	8.19	2.58	-4.76	8.16	2.64	-1.89	0.21	-0.98	1006.18	64.00
1549066957715	2610341.00	88.00	-4.67	8.16	2.61	-4.76	8.16	2.64	-0.70	0.21	-1.26	1006.18	49.00
1549066957763	2603259.00	88.00	-4.70	8.23	2.52	-4.76	8.16	2.63	0.56	-0.07	-1.40	1006.18	29.00
1549066957817	2588635.00	88.00	-4.66	8.20	2.57	-4.76	8.16	2.63	-2.24	0.14	-0.98	1006.18	58.00
1549066957865	2571149.00	88.00	-4.64	8.23	2.63	-4.75	8.16	2.64	-1.19	0.21	-0.98	1006.18	31.00
1549066957920	2556765.00	89.00	-4.63	8.17	2.60	-4.75	8.16	2.64	-1.33	0.21	-0.98	1006.18	32.00
1549066957967	2546906.00	89.00	-4.63	8.19	2.57	-4.75	8.16	2.64	-1.33	0.14	-1.19	1006.18	14.00
1549066958021	2540255.00	88.00	-4.67	8.21	2.54	-4.75	8.17	2.63	-0.42	-0.14	-1.40	1006.18	23.00
1549066958070	2534777.00	88.00	-4.65	8.17	2.54	-4.75	8.17	2.63	-0.91	-0.42	-1.12	1006.18	70.00
1549066958125	2528885.00	89.00	-4.65	8.17	2.58	-4.75	8.17	2.63	-1.33	-0.42	-1.19	1006.18	34.00
1549066958171	2523137.00	88.00	-4.66	8.19	2.54	-4.75	8.17	2.63	-1.12	-0.49	-1.33	1006.18	36.00
1549066958225	2518449.00	88.00	-4.63	8.15	2.54	-4.74	8.17	2.63	-1.05	-0.70	-1.40	1006.18	3.00
1549066958273	2515378.00	89.00	-4.69	8.24	2.55	-4.74	8.17	2.62	-0.77	-0.84	-1.47	1006.18	22.00
1549066958328	2514040.00	89.00	-4.66	8.17	2.52	-4.74	8.17	2.62	-0.98	-0.91	-1.26	1006.18	0.00
1549066958376	2513589.00	89.00	-4.67	8.18	2.53	-4.75	8.17	2.62	-1.96	-0.84	-1.12	1006.18	31.00
1549066958430	2512854.00	88.00	-4.67	8.19	2.60	-4.75	8.17	2.63	-0.70	-0.91	-1.54	1006.18	18.00
1549066958478	2511534.00	89.00	-4.66	8.22	2.53	-4.74	8.18	2.62	-0.07	-0.77	-1.40	1006.18	67.00
1549066958532	2504364.00	88.00	-4.67	8.19	2.56	-4.74	8.17	2.62	-2.03	-0.63	-1.12	1006.18	5.00
1549066958581	2493685.00	88.00	-4.63	8.19	2.57	-4.74	8.17	2.63	-1.61	-0.63	-1.26	1006.18	7.00
1549066958636	2486171.00	89.00	-4.62	8.18	2.49	-4.74	8.18	2.62	-1.05	-0.42	-1.19	1006.18	34.00
1549066958682	2483497.00	89.00	-4.67	8.18	2.62	-4.74	8.17	2.63	-1.54	-0.49	-1.54	1006.18	12.00
1549066958737	2483429.00	89.00	-4.66	8.20	2.59	-4.74	8.17	2.63	-0.98	-0.49	-1.40	1006.18	43.00
1549066958785	2484212.00	89.00	-4.63	8.19	2.60	-4.74	8.17	2.64	-1.26	-0.49	-1.19	1006.18	52.00
1549066958839	2483876.00	89.00	-4.65	8.20	2.57	-4.74	8.17	2.64	-1.61	-0.49	-1.33	1006.18	28.00
1549066958887	2483153.00	89.00	-4.62	8.20	2.56	-4.74	8.17	2.64	-1.61	-0.49	-1.40	1006.18	10.00
1549066958940	2482193.00	89.00	-4.69	8.18	2.62	-4.74	8.17	2.64	-1.47	-0.56	-1.40	1006.18	43.00
1549066958989	2481973.00	89.00	-4.68	8.17	2.60	-4.74	8.17	2.65	-0.98	-0.49	-1.40	1006.19	24.00
1549066959043	2483180.00	89.00	-4.64	8.18	2.63	-4.74	8.16	2.65	-1.26	-0.42	-1.40	1006.19	28.00
1549066959091	2484995.00	89.00	-4.68	8.19	2.58	-4.74	8.16	2.65	-1.54	-0.35	-1.12	1006.19	13.00
1549066959145	2486686.00	89.00	-4.67	8.12	2.66	-4.75	8.16	2.66	-1.12	-0.63	-1.47	1006.19	44.00
1549066959194	2488083.00	89.00	-4.61	8.23	2.57	-4.74	8.16	2.66	-0.14	-0.70	-1.47	1006.19	43.00
1549066959247	2485339.00	89.00	-4.68	8.13	2.59	-4.74	8.16	2.66	-1.40	-0.42	-1.19	1006.19	31.00
1549066959295	2476446.00	89.00	-4.65	8.20	2.65	-4.74	8.16	2.67	-1.61	-0.49	-1.40	1006.19	10.00
1549066959349	2466750.00	89.00	-4.69	8.20	2.57	-4.74	8.16	2.66	-1.40	-0.42	-1.19	1006.19	7.00
1549066959398	2460580.00	89.00	-4.62	8.15	2.60	-4.74	8.16	2.67	-1.54	-0.42	-1.33	1006.19	3.00
1549066959451	2458148.00	89.00	-4.67	8.20	2.58	-4.74	8.16	2.66	-0.77	-0.49	-1.54	1006.19	20.00
1549066959504	2460557.00	89.00	-4.67	8.16	2.60	-4.74	8.16	2.66	-0.70	-0.49	-1.33	1006.19	10.00
1549066959556	2461791.00	89.00	-4.65	8.18	2.58	-4.75	8.16	2.66	-1.68	-0.42	-1.40	1006.19	2.00
1549066959602	2461661.00	89.00	-4.68	8.21	2.67	-4.75	8.16	2.67	-1.61	-0.42	-1.33	1006.19	35.00
1549066959655	2462492.00	90.00	-4.66	8.18	2.57	-4.75	8.16	2.67	-1.05	-0.42	-1.33	1006.18	58.00
1549066959703	2464963.00	89.00	-4.68	8.16	2.64	-4.75	8.15	2.67	-0.98	-0.35	-1.47	1006.18	42.00
1549066959758	2468114.00	89.00	-4.62	8.21	2.61	-4.74	8.16	2.67	-1.12	-0.42	-1.33	1006.18	21.00
1549066959806	2471624.00	89.00	-4.66	8.12	2.59	-4.75	8.16	2.67	-1.33	-0.35	-1.12	1006.18	24.00
1549066959859	2474612.00	89.00	-4.63	8.18	2.65	-4.74	8.16	2.68	-1.26	-0.42	-1.33	1006.18	52.00
1549066959908	2477122.00	89.00	-4.71	8.20	2.62	-4.75	8.15	2.68	-1.26	-0.63	-1.61	1006.18	46.00
1549066959962	2474310.00	90.00	-4.66	8.15	2.58	-4.75	8.15	2.67	-1.05	-0.49	-1.26	1006.18	17.00
1549066960010	2466109.00	90.00	-4.64	8.15	2.61	-4.75	8.15	2.68	-1.68	-0.42	-1.19	1006.18	7.00
1549066960066	2458813.00	89.00	-4.68	8.18	2.62	-4.75	8.15	2.68	-1.26	-0.14	-1.26	1006.18	42.00
1549066960112	2454791.00	89.00	-4.68	8.20	2.59	-4.75	8.15	2.67	-1.19	0.07	-1.19	1006.18	11.00
1549066960166	2452927.00	89.00	-4.67	8.19	2.64	-4.75	8.15	2.68	-1.12	0.21	-1.40	1006.18	14.00
1549066960217	2452185.00	89.00	-4.64	8.21	2.57	-4.75	8.16	2.67	-0.63	0.14	-0.98	1006.18	2.00
1549066960268	2450386.00	89.00	-4.64	8.18	2.63	-4.75	8.16	2.67	-1.47	0.21	-1.12	1006.18	81.00
1549066960316	2446767.00	89.00	-4.66	8.16	2.64	-4.75	8.15	2.67	-1.26	0.21	-1.26	1006.18	25.00
1549066960371	2442618.00	89.00	-4.65	8.16	2.60	-4.75	8.15	2.67	-1.19	0.28	-1.33	1006.18	21.00
1549066960419	2438746.00	89.00	-4.69	8.17	2.60	-4.75	8.15	2.67	-0.98	0.35	-1.26	1006.18	5.00
1549066960472	2435312.00	89.00	-4.70	8.17	2.62	-4.76	8.15	2.67	-1.19	0.35	-1.26	1006.18	52.00
1549066960520	2432003.00	89.00	-4.65	8.17	2.55	-4.76	8.15	2.66	-1.26	0.28	-1.12	1006.18	37.00
1549066960576	2428064.00	89.00	-4.68	8.17	2.62	-4.76	8.15	2.67	-2.17	0.35	-0.98	1006.18	39.00
1549066960622	2423407.00	89.00	-4.69	8.18	2.65	-4.76	8.15	2.67	-0.42	0.21	-1.40	1006.18	8.00
1549066960677	2419698.00	89.00	-4.66	8.22	2.56	-4.76	8.15	2.66	0.21	0.21	-1.33	1006.18	43.00
1549066960725	2410895.00	89.00	-4.69	8.17	2.61	-4.76	8.15	2.66	-2.38	0.21	-1.12	1006.18	28.00
1549066960779	2396005.00	89.00	-4.63	8.26	2.61	-4.75	8.15	2.66	-1.47	0.28	-0.77	1006.18	10.00
1549066960827	2381898.00	89.00	-4.63	8.20	2.56	-4.75	8.16	2.66	-1.40	0.35	-0.70	1006.18	9.00
1549066960881	2372308.00	89.00	-4.75	8.18	2.56	-4.76	8.15	2.65	-1.26	0.42	-1.12	1006.18	15.00
1549066960929	2366592.00	89.00	-4.67	8.19	2.58	-4.76	8.16	2.65	-0.70	0.14	-1.26	1006.18	36.00
1549066960985	2362401.00	89.00	-4.64	8.15	2.57	-4.76	8.16	2.64	-0.77	0.07	-0.77	1006.18	25.00
1549066961031	2358207.00	89.00	-4.60	8.15	2.60	-4.75	8.16	2.65	-1.47	-0.21	-0.98	1006.18	13.00
1549066961085	2353510.00	89.00	-4.66	8.17	2.58	-4.75	8.16	2.65	-1.61	-0.42	-1.40	1006.18	36.00
1549066961134	2349711.00	89.00	-4.67	8.18	2.57	-4.75	8.16	2.65	-1.05	-0.42	-1.47	1006.18	18.00
1549066961188	2347581.00	89.00	-4.63	8.13	2.58	-4.75	8.16	2.65	-0.84	-0.63	-1.40	1006.18	11.00
1549066961235	2347904.00	89.00	-4.63	8.17	2.58	-4.75	8.16	2.65	-0.77	-0.70	-1.40	1006.18	26.00
1549066961290	2349919.00	89.00	-4.62	8.14	2.58	-4.75	8.16	2.65	-1.61	-0.84	-1.33	1006.18	2.00
1549066961338	2352646.00	89.00	-4.64	8.17	2.61	-4.74	8.16	2.66	-1.12	-0.84	-1.33	1006.18	28.00
1549066961391	2355712.00	89.00	-4.65	8.20	2.62	-4.74	8.16	2.66	-0.56	-1.26	-1.82	1006.18	44.00
1549066961439	2360398.00	89.00	-4.68	8.19	2.55	-4.74	8.16	2.65	-1.19	-1.12	-1.47	1006.18	0.00
1549066961496	2352850.00	89.00	-4.66	8.18	2.66	-4.74	8.16	2.67	-1.89	-0.84	-1.19	1006.18	21.00
1549066961542	2348131.00	89.00	-4.63	8.14	2.60	-4.74	8.16	2.67	-1.54	-0.77	-1.40	1006.19	14.00
1549066961597	2348221.00	89.00	-4.68	8.18	2.59	-4.75	8.16	2.67	-1.33	-0.56	-1.33	1006.19	22.00
1549066961644	2351497.00	89.00	-4.66	8.19	2.57	-4.75	8.16	2.67	-1.05	-0.63	-1.54	1006.19	47.00
1549066961698	2356062.00	89.00	-4.66	8.18	2.60	-4.74	8.16	2.66	-0.91	-0.63	-1.33	1006.19	1.00
1549066961746	2359834.00	89.00	-4.63	8.18	2.60	-4.74	8.16	2.67	-1.26	-0.63	-1.19	1006.19	22.00
1549066961800	2362380.00	89.00	-4.64	8.17	2.66	-4.74	8.16	2.67	-1.40	-0.63	-1.33	1006.19	35.00
1549066961848	2364509.00	89.00	-4.63	8.15	2.63	-4.74	8.16	2.68	-1.47	-0.70	-1.40	1006.19	5.00
1549066961905	2367341.00	89.00	-4.65	8.17	2.59	-4.74	8.16	2.68	-0.98	-0.63	-1.54	1006.19	14.00
1549066961951	2371831.00	89.00	-4.67	8.17	2.65	-4.74	8.16	2.68	-0.98	-0.49	-1.47	1006.19	37.00
1549066962005	2376793.00	89.00	-4.68	8.19	2.63	-4.74	8.15	2.68	-1.40	-0.49	-1.47	1006.19	7.00
1549066962053	2380975.00	89.00	-4.63	8.17	2.62	-4.74	8.15	2.69	-1.54	-0.49	-1.12	1006.19	10.00
1549066962107	2385010.00	89.00	-4.63	8.16	2.63	-4.74	8.15	2.69	-1.05	-0.63	-1.47	1006.19	15.00
1549066962156	2387819.00	89.00	-4.67	8.19	2.61	-4.74	8.16	2.68	-0.14	-0.77	-1.75	1006.19	52.00
1549066962209	2384412.00	89.00	-4.68	8.16	2.64	-4.74	8.16	2.68	-0.77	-0.49	-1.19	1006.19	12.00
1549066962257	2375582.00	89.00	-4.64	8.12	2.63	-4.74	8.15	2.69	-1.40	-0.42	-1.19	1006.19	27.00
1549066962317	2368225.00	89.00	-4.66	8.14	2.60	-4.74	8.15	2.69	-1.40	-0.42	-1.40	1006.19	63.00
1549066962361	2365311.00	89.00	-4.66	8.18	2.65	-4.74	8.15	2.69	-1.40	-0.35	-1.33	1006.19	0.00
1549066962415	2366445.00	88.00	-4.68	8.20	2.65	-4.75	8.15	2.69	-0.98	-0.42	-1.61	1006.19	1.00
1549066962462	2369751.00	88.00	-4.66	8.18	2.56	-4.74	8.15	2.68	-0.63	-0.49	-1.26	1006.19	69.00
1549066962516	2373669.00	88.00	-4.62	8.17	2.62	-4.74	8.15	2.68	-1.26	-0.35	-1.26	1006.20	16.00
1549066962564	2375709.00	88.00	-4.65	8.21	2.63	-4.74	8.15	2.68	-1.26	-0.35	-1.33	1006.20	18.00
1549066962618	2377491.00	88.00	-4.59	8.13	2.64	-4.74	8.16	2.69	-1.12	-0.42	-1.33	1006.20	78.00
1549066962666	2380132.00	88.00	-4.60	8.19	2.64	-4.73	8.16	2.69	-1.19	-0.42	-1.40	1006.20	15.00
1549066962720	2383627.00	88.00	-4.66	8.18	2.61	-4.73	8.16	2.69	-1.19	-0.35	-1.40	1006.20	32.00
1549066962768	2387530.00	88.00	-4.62	8.19	2.61	-4.73	8.16	2.69	-1.19	-0.42	-1.33	1006.20	40.00
1549066962823	2391337.00	88.00	-4.67	8.16	2.66	-4.73	8.16	2.69	-1.33	-0.35	-1.26	1006.19	40.00
1549066962870	2395207.00	88.00	-4.63	8.17	2.64	-4.73	8.16	2.70	-1.05	-0.42	-1.33	1006.19	35.00
1549066962926	2398268.00	88.00	-4.69	8.19	2.63	-4.73	8.16	2.69	-0.07	-0.63	-1.68	1006.19	26.00
1549066962972	2396485.00	88.00	-4.64	8.18	2.59	-4.73	8.16	2.69	-0.84	-0.42	-1.19	1006.19	5.00
1549066963026	2386357.00	88.00	-4.63	8.16	2.64	-4.73	8.16	2.69	-1.68	-0.42	-1.12	1006.19	9.00
1549066963075	2374134.00	88.00	-4.64	8.16	2.62	-4.73	8.16	2.69	-1.33	-0.35	-1.33	1006.19	32.00
1549066963129	2365927.00	88.00	-4.67	8.16	2.64	-4.74	8.15	2.69	-1.05	-0.14	-1.33	1006.19	19.00
1549066963177	2363573.00	88.00	-4.70	8.20	2.67	-4.74	8.15	2.69	-1.19	0.14	-1.47	1006.19	25.00
1549066963232	2363201.00	88.00	-4.62	8.16	2.58	-4.74	8.15	2.69	-0.70	0.21	-0.98	1006.19	22.00
1549066963278	2362064.00	88.00	-4.62	8.18	2.59	-4.74	8.16	2.68	-1.26	0.28	-0.98	1006.19	37.00
1549066963332	2358371.00	88.00	-4.62	8.17	2.65	-4.74	8.16	2.69	-1.19	0.28	-1.26	1006.19	17.00
1549066963380	2353426.00	88.00	-4.67	8.18	2.59	-4.74	8.16	2.68	-1.19	0.21	-1.26	1006.18	6.00
1549066963435	2349015.00	88.00	-4.68	8.19	2.58	-4.74	8.16	2.67	-0.84	0.42	-1.19	1006.19	8.00
1549066963483	2341603.00	87.00	-4.65	8.17	2.59	-4.74	8.16	2.67	-1.26	0.42	-1.26	1006.19	42.00
1549066963537	2337822.00	87.00	-4.68	8.18	2.62	-4.75	8.15	2.67	-1.26	0.35	-1.19	1006.19	56.00
1549066963585	2333653.00	88.00	-4.61	8.17	2.65	-4.75	8.15	2.68	-1.68	0.35	-1.05	1006.19	5.00
1549066963639	2328478.00	88.00	-4.65	8.12	2.65	-4.75	8.15	2.68	-1.54	0.35	-1.05	1006.19	0.00
1549066963687	2323930.00	88.00	-4.68	8.18	2.59	-4.75	8.15	2.68	-1.54	0.14	-1.40	1006.19	28.00
1549066963741	2313007.00	88.00	-4.71	8.21	2.51	-4.76	8.15	2.66	-0.84	0.14	-1.05	1006.19	5.00
1549066963789	2293931.00	88.00	-4.65	8.21	2.60	-4.75	8.15	2.66	-1.68	0.42	-0.84	1006.19	48.00
1549066963845	2275771.00	87.00	-4.63	8.20	2.64	-4.75	8.15	2.67	-1.19	0.28	-1.05	1006.19	17.00
1549066963892	2263768.00	87.00	-4.63	8.21	2.56	-4.75	8.16	2.66	-1.33	0.42	-0.91	1006.19	94.00
1549066963945	2256536.00	87.00	-4.69	8.21	2.53	-4.75	8.16	2.65	-1.05	0.49	-1.12	1006.19	28.00
1549066963994	2251639.00	87.00	-4.64	8.23	2.56	-4.75	8.16	2.64	-0.63	0.42	-1.12	1006.19	59.00
1549066964048	2245860.00	87.00	-4.61	8.16	2.57	-4.74	8.17	2.64	-0.84	0.42	-0.42	1006.19	0.00
1549066964096	2238706.00	87.00	-4.60	8.19	2.59	-4.74	8.17	2.64	-1.54	0.28	-0.49	1006.19	1.00
1549066964149	2231827.00	87.00	-4.62	8.19	2.57	-4.73	8.17	2.64	-1.12	0.21	-0.91	1006.19	38.00
1549066964197	2226504.00	87.00	-4.62	8.19	2.55	-4.73	8.17	2.64	-0.98	0.21	-1.26	1006.19	13.00
1549066964251	2223790.00	87.00	-4.67	8.20	2.58	-4.73	8.17	2.64	-0.77	-0.28	-1.33	1006.19	78.00
1549066964300	2223473.00	87.00	-4.61	8.21	2.59	-4.73	8.18	2.64	-0.42	-0.35	-1.26	1006.19	76.00
1549066964357	2224884.00	87.00	-4.61	8.18	2.58	-4.73	8.18	2.64	-1.33	-0.42	-1.26	1006.19	15.00
1549066964402	2226333.00	87.00	-4.58	8.22	2.54	-4.72	8.18	2.64	-1.26	-0.49	-1.19	1006.18	31.00
1549066964456	2229569.00	87.00	-4.65	8.16	2.59	-4.72	8.18	2.64	-1.26	-1.05	-1.61	1006.18	65.00
1549066964504	2231676.00	87.00	-4.62	8.26	2.55	-4.72	8.18	2.63	-0.35	-1.19	-1.61	1006.18	17.00
1549066964558	2227377.00	87.00	-4.66	8.17	2.54	-4.72	8.18	2.64	-1.75	-1.05	-1.33	1006.18	21.00
1549066964606	2221270.00	87.00	-4.64	8.25	2.57	-4.72	8.18	2.64	-1.54	-1.05	-1.54	1006.18	5.00
1549066964660	2220411.00	86.00	-4.60	8.22	2.56	-4.72	8.18	2.64	-1.61	-0.84	-1.33	1006.18	55.00
1549066964709	2224570.00	87.00	-4.63	8.23	2.62	-4.72	8.18	2.65	-1.68	-0.91	-1.68	1006.18	22.00
1549066964762	2231312.00	87.00	-4.66	8.20	2.60	-4.72	8.18	2.65	-1.19	-0.91	-1.47	1006.18	10.00
1549066964811	2238341.00	87.00	-4.64	8.19	2.60	-4.72	8.18	2.65	-1.54	-0.98	-1.33	1006.18	28.00
1549066964866	2243538.00	87.00	-4.63	8.19	2.57	-4.72	8.18	2.65	-1.26	-0.84	-1.54	1006.18	11.00
1549066964912	2249085.00	87.00	-4.59	8.16	2.57	-4.72	8.18	2.66	-1.54	-0.84	-1.54	1006.18	30.00
1549066964967	2255177.00	86.00	-4.63	8.18	2.62	-4.72	8.17	2.66	-1.40	-0.77	-1.61	1006.18	58.00
1549066965015	2261809.00	86.00	-4.64	8.20	2.56	-4.72	8.17	2.66	-1.33	-0.70	-1.47	1006.18	66.00
1549066965069	2269216.00	86.00	-4.65	8.16	2.60	-4.72	8.17	2.66	-1.26	-0.70	-1.54	1006.18	24.00
1549066965117	2276963.00	86.00	-4.67	8.17	2.60	-4.73	8.17	2.67	-1.54	-0.77	-1.33	1006.19	23.00
1549066965171	2284596.00	86.00	-4.62	8.18	2.60	-4.73	8.17	2.67	-1.26	-0.63	-1.33	1006.19	3.00
1549066965219	2291608.00	86.00	-4.65	8.19	2.65	-4.73	8.17	2.67	-0.56	-0.98	-1.89	1006.19	13.00
1549066965276	2293749.00	86.00	-4.67	8.18	2.57	-4.73	8.17	2.67	-0.42	-0.77	-1.54	1006.19	80.00
1549066965321	2289014.00	86.00	-4.66	8.16	2.62	-4.73	8.17	2.67	-1.40	-0.56	-1.26	1006.19	53.00
1549066965375	2282075.00	86.00	-4.62	8.17	2.63	-4.73	8.16	2.67	-1.54	-0.49	-1.40	1006.19	17.00
1549066965423	2277819.00	86.00	-4.61	8.16	2.59	-4.73	8.16	2.67	-1.47	-0.49	-1.26	1006.19	65.00
1549066965478	2282067.00	86.00	-4.63	8.18	2.64	-4.73	8.16	2.68	-1.33	-0.56	-1.68	1006.19	0.00
1549066965529	2288200.00	86.00	-4.63	8.19	2.65	-4.73	8.16	2.68	-0.56	-0.56	-1.61	1006.19	9.00
1549066965580	2293180.00	86.00	-4.65	8.15	2.62	-4.73	8.16	2.69	-1.47	-0.49	-1.26	1006.19	7.00
1549066965628	2296141.00	86.00	-4.63	8.16	2.71	-4.73	8.16	2.70	-1.54	-0.42	-1.33	1006.19	27.00
1549066965682	2298965.00	86.00	-4.66	8.18	2.60	-4.73	8.16	2.69	-1.12	-0.49	-1.33	1006.19	38.00
1549066965730	2303719.00	86.00	-4.62	8.15	2.63	-4.73	8.16	2.69	-1.05	-0.42	-1.40	1006.19	65.00
1549066965785	2309442.00	86.00	-4.64	8.16	2.62	-4.73	8.16	2.69	-1.19	-0.35	-1.40	1006.19	32.00
1549066965833	2315366.00	86.00	-4.64	8.20	2.66	-4.73	8.16	2.70	-1.05	-0.42	-1.33	1006.19	3.00
1549066965887	2320932.00	86.00	-4.65	8.15	2.70	-4.73	8.15	2.71	-1.61	-0.49	-1.40	1006.18	22.00
1549066965935	2326086.00	86.00	-4.55	8.16	2.71	-4.72	8.15	2.72	-1.33	-0.35	-1.19	1006.18	9.00
1549066965989	2328478.00	86.00	-4.64	8.19	2.68	-4.72	8.16	2.72	-0.14	-0.70	-1.68	1006.18	5.00
1549066966037	2324048.00	86.00	-4.65	8.20	2.62	-4.72	8.16	2.71	-0.77	-0.49	-1.33	1006.18	27.00
1549066966091	2314236.00	86.00	-4.62	8.15	2.58	-4.72	8.16	2.71	-1.47	-0.35	-1.26	1006.18	44.00
1549066966139	2306160.00	86.00	-4.63	8.17	2.63	-4.72	8.16	2.71	-1.26	-0.28	-1.33	1006.18	48.00
1549066966193	2303115.00	85.00	-4.65	8.21	2.65	-4.72	8.16	2.71	-1.40	-0.14	-1.19	1006.19	33.00
1549066966244	2302933.00	85.00	-4.63	8.16	2.69	-4.72	8.16	2.71	-1.19	0.14	-1.47	1006.19	34.00
1549066966295	2304001.00	85.00	-4.61	8.22	2.63	-4.72	8.16	2.70	-0.56	0.28	-0.98	1006.19	10.00
1549066966344	2303331.00	85.00	-4.61	8.16	2.62	-4.72	8.16	2.70	-1.12	0.35	-0.98	1006.19	36.00
1549066966397	2299995.00	85.00	-4.63	8.16	2.65	-4.72	8.16	2.70	-1.47	0.49	-1.19	1006.19	30.00
1549066966445	2295699.00	85.00	-4.63	8.19	2.61	-4.72	8.16	2.70	-1.26	0.28	-1.19	1006.19	6.00
1549066966500	2291688.00	85.00	-4.68	8.17	2.60	-4.73	8.16	2.69	-1.05	0.35	-1.26	1006.19	14.00
1549066966547	2288404.00	85.00	-4.64	8.20	2.62	-4.73	8.16	2.69	-1.40	0.35	-1.33	1006.19	25.00
1549066966601	2285015.00	85.00	-4.65	8.22	2.58	-4.73	8.16	2.68	-1.33	0.35	-1.12	1006.19	27.00
1549066966649	2281201.00	85.00	-4.60	8.18	2.58	-4.73	8.16	2.68	-1.47	0.35	-0.98	1006.18	20.00
1549066966706	2277106.00	85.00	-4.61	8.18	2.64	-4.73	8.16	2.68	-1.40	0.49	-1.26	1006.18	4.00
1549066966752	2272756.00	85.00	-4.68	8.20	2.59	-4.73	8.16	2.67	-0.07	0.49	-1.54	1006.19	59.00
1549066966806	2265337.00	85.00	-4.62	8.16	2.63	-4.73	8.16	2.68	-1.40	0.49	-1.12	1006.19	42.00
1549066966854	2249223.00	85.00	-4.63	8.18	2.62	-4.73	8.16	2.68	-1.54	0.14	-0.98	1006.19	4.00
1549066966908	2231363.00	85.00	-4.62	8.18	2.60	-4.73	8.16	2.68	-1.26	0.14	-1.26	1006.19	17.00
1549066966955	2218752.00	85.00	-4.63	8.15	2.53	-4.74	8.16	2.67	-1.47	0.42	-1.12	1006.19	9.00
1549066967009	2211992.00	84.00	-4.69	8.16	2.62	-4.74	8.16	2.67	-0.63	0.42	-1.26	1006.19	24.00
1549066967058	2208920.00	85.00	-4.64	8.21	2.60	-4.74	8.16	2.66	-0.91	0.28	-1.19	1006.19	65.00
1549066967112	2205525.00	85.00	-4.64	8.19	2.62	-4.74	8.16	2.67	-1.54	0.28	-0.70	1006.19	69.00
1549066967160	2199739.00	85.00	-4.57	8.19	2.65	-4.73	8.16	2.67	-1.68	0.21	-0.77	1006.19	22.00
1549066967216	2192997.00	85.00	-4.62	8.20	2.64	-4.73	8.16	2.68	-1.33	0.21	-1.12	1006.19	42.00
1549066967262	2187566.00	85.00	-4.66	8.20	2.61	-4.73	8.16	2.67	-0.91	0.21	-1.19	1006.19	16.00
1549066967316	2184336.00	84.00	-4.64	8.13	2.61	-4.73	8.16	2.67	-0.63	-0.14	-1.26	1006.19	12.00
1549066967364	2183397.00	84.00	-4.62	8.16	2.62	-4.73	8.16	2.67	-1.12	-0.42	-1.33	1006.19	63.00
1549066967418	2183864.00	84.00	-4.69	8.21	2.63	-4.73	8.16	2.68	-1.33	-0.42	-1.26	1006.19	43.00
1549066967467	2187253.00	84.00	-4.60	8.14	2.61	-4.73	8.16	2.68	-0.56	-0.63	-1.47	1006.19	3.00
1549066967521	2185761.00	84.00	-4.61	8.23	2.56	-4.72	8.17	2.67	0.14	-0.84	-1.54	1006.19	14.00
1549066967569	2177624.00	84.00	-4.62	8.19	2.65	-4.72	8.17	2.67	-1.61	-0.84	-1.26	1006.19	20.00
1549066967623	2170435.00	84.00	-4.66	8.18	2.60	-4.72	8.17	2.67	-0.98	-1.12	-1.61	1006.19	38.00
1549066967671	2170894.00	84.00	-4.61	8.21	2.58	-4.72	8.17	2.67	-1.05	-1.26	-1.54	1006.19	7.00
1549066967725	2177394.00	84.00	-4.66	8.15	2.63	-4.72	8.17	2.68	-1.82	-1.05	-1.61	1006.19	5.00
1549066967773	2185182.00	84.00	-4.64	8.27	2.59	-4.72	8.17	2.68	-1.26	-1.05	-1.40	1006.19	34.00
1549066967826	2191304.00	84.00	-4.60	8.17	2.62	-4.72	8.17	2.68	-1.68	-1.05	-1.19	1006.19	64.00
1549066967875	2195817.00	84.00	-4.59	8.15	2.58	-4.71	8.17	2.68	-1.19	-1.05	-1.54	1006.19	37.00
1549066967929	2201629.00	84.00	-4.63	8.18	2.63	-4.72	8.17	2.68	-1.40	-0.91	-1.75	1006.19	5.00
1549066967977	2208621.00	84.00	-4.63	8.17	2.62	-4.72	8.17	2.69	-1.26	-0.77	-1.54	1006.19	20.00
1549066968031	2216305.00	84.00	-4.61	8.16	2.66	-4.71	8.17	2.69	-0.77	-0.70	-1.47	1006.19	76.00
1549066968079	2225164.00	84.00	-4.60	8.17	2.58	-4.71	8.17	2.69	-0.84	-0.77	-1.54	1006.19	49.00
1549066968133	2234481.00	84.00	-4.66	8.17	2.63	-4.72	8.17	2.69	-1.61	-0.70	-1.33	1006.19	7.00
1549066968181	2242844.00	84.00	-4.64	8.14	2.63	-4.72	8.16	2.69	-1.12	-0.63	-1.40	1006.19	40.00
1549066968235	2246912.00	84.00	-4.64	8.17	2.65	-4.72	8.16	2.69	-0.42	-0.98	-1.96	1006.19	2.00
1549066968284	2241939.00	84.00	-4.63	8.17	2.61	-4.72	8.16	2.69	-0.77	-0.70	-1.40	1006.19	20.00
1549066968338	2231560.00	84.00	-4.65	8.15	2.63	-4.72	8.16	2.69	-1.40	-0.56	-1.26	1006.19	16.00
1549066968386	2223271.00	84.00	-4.67	8.16	2.64	-4.73	8.16	2.70	-1.33	-0.49	-1.26	1006.19	41.00
1549066968439	2221111.00	84.00	-4.61	8.13	2.66	-4.73	8.16	2.70	-1.33	-0.35	-1.26	1006.19	33.00
1549066968491	2223940.00	83.00	-4.62	8.17	2.69	-4.72	8.16	2.71	-1.19	-0.42	-1.54	1006.19	46.00
1549066968541	2228660.00	83.00	-4.62	8.19	2.66	-4.72	8.16	2.71	-0.77	-0.56	-1.40	1006.19	4.00
1549066968590	2233230.00	83.00	-4.59	8.17	2.58	-4.72	8.16	2.70	-1.19	-0.49	-1.19	1006.19	41.00
1549066968646	2236178.00	83.00	-4.63	8.16	2.66	-4.72	8.16	2.71	-1.54	-0.42	-1.40	1006.19	14.00
1549066968692	2238670.00	83.00	-4.62	8.17	2.64	-4.72	8.16	2.71	-1.19	-0.49	-1.40	1006.19	5.00
1549066968746	2242229.00	83.00	-4.63	8.22	2.62	-4.72	8.16	2.71	-1.12	-0.42	-1.40	1006.20	9.00
1549066968794	2247379.00	83.00	-4.60	8.16	2.65	-4.72	8.16	2.71	-0.91	-0.35	-1.33	1006.20	9.00
1549066968848	2253169.00	83.00	-4.67	8.17	2.63	-4.72	8.16	2.71	-1.12	-0.42	-1.33	1006.20	52.00
1549066968896	2259155.00	83.00	-4.62	8.20	2.63	-4.72	8.16	2.70	-1.26	-0.21	-1.12	1006.20	30.00
1549066968950	2264241.00	83.00	-4.62	8.15	2.69	-4.72	8.16	2.71	-1.19	-0.70	-1.61	1006.20	3.00
1549066968998	2263821.00	83.00	-4.65	8.22	2.60	-4.72	8.16	2.70	-0.21	-0.56	-1.33	1006.20	43.00
1549066969052	2253583.00	83.00	-4.66	8.17	2.63	-4.72	8.16	2.70	-1.05	-0.35	-1.19	1006.20	31.00
1549066969101	2240213.00	83.00	-4.62	8.22	2.65	-4.72	8.16	2.70	-1.05	-0.28	-1.33	1006.20	15.00
1549066969155	2231627.00	83.00	-4.70	8.15	2.66	-4.72	8.16	2.70	-1.33	-0.21	-1.12	1006.20	10.00
1549066969203	2229501.00	83.00	-4.64	8.19	2.65	-4.72	8.16	2.71	-1.47	-0.14	-1.33	1006.20	20.00
1549066969259	2230567.00	83.00	-4.69	8.23	2.67	-4.73	8.16	2.70	-0.35	0.21	-1.33	1006.20	26.00
1549066969305	2232361.00	83.00	-4.67	8.20	2.59	-4.73	8.16	2.69	-0.35	0.42	-0.84	1006.20	31.00
1549066969359	2232784.00	83.00	-4.64	8.14	2.72	-4.73	8.16	2.70	-1.26	0.49	-0.98	1006.20	18.00
1549066969408	2230659.00	83.00	-4.61	8.21	2.59	-4.72	8.16	2.69	-0.70	0.56	-0.98	1006.20	33.00
1549066969462	2226230.00	83.00	-4.65	8.14	2.60	-4.73	8.16	2.69	-1.05	0.49	-1.26	1006.20	39.00
1549066969510	2224372.00	83.00	-4.65	8.19	2.62	-4.73	8.16	2.69	-1.33	0.49	-1.26	1006.20	5.00
1549066969566	2221860.00	83.00	-4.64	8.22	2.55	-4.73	8.16	2.68	-1.05	0.42	-1.05	1006.20	18.00
1549066969612	2218595.00	83.00	-4.62	8.16	2.56	-4.73	8.16	2.67	-1.40	0.42	-0.91	1006.20	36.00
1549066969666	2214828.00	83.00	-4.63	8.20	2.61	-4.73	8.16	2.67	-1.47	0.56	-0.98	1006.20	27.00
1549066969714	2209651.00	83.00	-4.64	8.18	2.59	-4.73	8.17	2.66	0.14	0.07	-1.33	1006.19	35.00
1549066969768	2196825.00	83.00	-4.63	8.21	2.56	-4.73	8.17	2.65	-0.70	0.07	-0.98	1006.19	2.00
1549066969816	2177483.00	83.00	-4.64	8.19	2.60	-4.73	8.17	2.66	-1.68	0.35	-0.84	1006.20	11.00
1549066969871	2161806.00	83.00	-4.59	8.19	2.59	-4.73	8.17	2.66	-1.19	0.35	-1.05	1006.20	56.00
1549066969919	2152781.00	83.00	-4.60	8.17	2.55	-4.72	8.17	2.65	-1.26	0.49	-0.98	1006.20	29.00
1549066969972	2149067.00	83.00	-4.63	8.19	2.61	-4.72	8.17	2.65	-0.70	0.42	-1.19	1006.20	22.00
1549066970020	2147446.00	82.00	-4.66	8.20	2.61	-4.73	8.17	2.65	-0.63	0.35	-1.12	1006.20	49.00
1549066970076	2144171.00	82.00	-4.65	8.20	2.55	-4.73	8.18	2.64	-1.05	0.28	-0.63	1006.20	38.00
1549066970122	2138894.00	83.00	-4.63	8.20	2.62	-4.73	8.17	2.65	-1.89	0.21	-0.70	1006.20	1.00
1549066970177	2133773.00	83.00	-4.62	8.18	2.56	-4.72	8.18	2.65	-1.19	0.14	-0.91	1006.20	45.00
1549066970224	2130886.00	82.00	-4.64	8.19	2.61	-4.72	8.18	2.65	-0.77	0.14	-1.26	1006.19	15.00
1549066970279	2130777.00	82.00	-4.68	8.24	2.53	-4.73	8.18	2.64	-0.63	-0.07	-1.40	1006.19	25.00
1549066970327	2132933.00	82.00	-4.61	8.19	2.58	-4.72	8.18	2.64	-1.12	-0.42	-1.26	1006.19	47.00
1549066970381	2135628.00	82.00	-4.62	8.20	2.57	-4.72	8.18	2.64	-1.75	-0.56	-1.26	1006.19	9.00
1549066970429	2138767.00	82.00	-4.61	8.15	2.59	-4.72	8.18	2.64	-0.77	-0.70	-1.61	1006.19	32.00
1549066970483	2142811.00	82.00	-4.61	8.29	2.55	-4.71	8.19	2.63	0.21	-0.98	-1.61	1006.19	30.00
1549066970530	2140530.00	82.00	-4.62	8.15	2.58	-4.71	8.18	2.64	-1.68	-1.05	-1.33	1006.19	42.00
1549066970586	2135044.00	82.00	-4.60	8.20	2.55	-4.71	8.18	2.64	-1.33	-1.47	-1.75	1006.20	18.00
1549066970633	2136020.00	82.00	-4.64	8.21	2.58	-4.71	8.18	2.65	-1.61	-1.54	-1.89	1006.20	7.00
1549066970687	2144696.00	82.00	-4.68	8.18	2.59	-4.72	8.17	2.65	-2.38	-1.33	-1.82	1006.19	45.00
1549066970735	2155857.00	82.00	-4.62	8.22	2.59	-4.72	8.17	2.66	-1.61	-1.19	-1.68	1006.19	18.00
1549066970789	2166619.00	82.00	-4.63	8.16	2.63	-4.72	8.17	2.67	-1.40	-1.05	-1.40	1006.19	5.00
1549066970837	2175662.00	82.00	-4.61	8.15	2.67	-4.72	8.17	2.68	-1.26	-0.98	-1.40	1006.19	5.00
1549066970891	2183840.00	82.00	-4.59	8.20	2.60	-4.72	8.17	2.68	-1.26	-0.84	-1.61	1006.19	58.00
1549066970939	2192954.00	82.00	-4.63	8.21	2.59	-4.72	8.17	2.68	-1.40	-0.84	-1.68	1006.19	7.00
1549066970993	2202846.00	82.00	-4.61	8.18	2.61	-4.72	8.17	2.68	-1.12	-0.70	-1.47	1006.19	21.00
1549066971041	2212570.00	82.00	-4.60	8.23	2.61	-4.71	8.17	2.68	-1.26	-0.70	-1.40	1006.19	23.00
1549066971096	2222477.00	82.00	-4.65	8.21	2.64	-4.71	8.17	2.68	-1.54	-0.70	-1.40	1006.19	33.00
1549066971144	2231321.00	82.00	-4.58	8.22	2.65	-4.71	8.17	2.69	-1.33	-0.49	-1.26	1006.19	4.00
1549066971197	2239324.00	82.00	-4.67	8.15	2.68	-4.71	8.17	2.69	-1.19	-0.98	-1.82	1006.19	12.00
1549066971245	2242235.00	82.00	-4.64	8.23	2.61	-4.71	8.17	2.69	-0.28	-0.63	-1.33	1006.19	26.00
1549066971299	2237686.00	82.00	-4.60	8.15	2.61	-4.71	8.17	2.69	-1.40	-0.56	-1.12	1006.19	35.00
1549066971348	2229792.00	82.00	-4.61	8.17	2.63	-4.71	8.17	2.69	-1.26	-0.49	-1.33	1006.19	5.00
1549066971402	2224989.00	82.00	-4.63	8.13	2.59	-4.72	8.17	2.69	-1.61	-0.35	-1.26	1006.19	35.00
1549066971450	2229587.00	82.00	-4.64	8.17	2.67	-4.72	8.16	2.70	-1.82	-0.42	-1.47	1006.19	28.00
1549066971506	2234173.00	82.00	-4.63	8.18	2.69	-4.72	8.16	2.70	-0.91	-0.49	-1.47	1006.19	27.00
1549066971552	2238776.00	82.00	-4.60	8.15	2.61	-4.72	8.16	2.70	-0.91	-0.49	-1.40	1006.19	33.00
1549066971606	2242209.00	82.00	-4.62	8.17	2.66	-4.72	8.16	2.71	-1.47	-0.35	-1.33	1006.19	25.00
1549066971654	2245591.00	82.00	-4.61	8.15	2.65	-4.72	8.16	2.71	-1.19	-0.42	-1.26	1006.19	20.00
1549066971708	2250488.00	82.00	-4.63	8.16	2.62	-4.72	8.16	2.71	-1.19	-0.42	-1.40	1006.18	6.00
1549066971756	2256347.00	82.00	-4.63	8.21	2.67	-4.72	8.16	2.71	-1.40	-0.35	-1.47	1006.18	49.00
1549066971810	2261602.00	82.00	-4.61	8.22	2.69	-4.71	8.16	2.71	-1.33	-0.49	-1.33	1006.18	7.00
1549066971859	2266835.00	82.00	-4.61	8.13	2.63	-4.71	8.16	2.71	-1.19	-0.49	-1.33	1006.18	12.00
1549066971913	2272003.00	82.00	-4.61	8.15	2.61	-4.71	8.16	2.71	-1.12	-0.28	-1.12	1006.18	18.00
1549066971961	2275203.00	82.00	-4.63	8.17	2.71	-4.71	8.16	2.72	-0.77	-0.63	-1.68	1006.18	41.00
1549066972015	2271846.00	82.00	-4.65	8.23	2.61	-4.71	8.16	2.71	-0.35	-0.49	-1.33	1006.18	32.00
1549066972063	2261902.00	82.00	-4.63	8.17	2.65	-4.71	8.16	2.71	-1.54	-0.35	-1.19	1006.18	4.00
1549066972117	2251929.00	82.00	-4.64	8.19	2.67	-4.71	8.16	2.71	-1.33	-0.42	-1.40	1006.18	74.00
1549066972165	2247560.00	82.00	-4.64	8.13	2.64	-4.72	8.16	2.72	-1.26	-0.28	-1.19	1006.18	35.00
1549066972221	2248356.00	82.00	-4.62	8.20	2.71	-4.72	8.16	2.72	-1.47	-0.28	-1.40	1006.18	2.00
1549066972267	2251268.00	82.00	-4.64	8.16	2.68	-4.72	8.16	2.72	-0.63	-0.35	-1.33	1006.18	6.00
1549066972322	2254089.00	82.00	-4.62	8.18	2.66	-4.71	8.16	2.72	-1.05	-0.35	-1.19	1006.18	23.00
1549066972369	2255539.00	82.00	-4.60	8.16	2.64	-4.71	8.16	2.72	-1.68	-0.35	-1.26	1006.18	20.00
1549066972425	2256123.00	82.00	-4.63	8.16	2.67	-4.72	8.16	2.72	-1.12	-0.42	-1.33	1006.18	47.00
1549066972471	2258319.00	82.00	-4.63	8.14	2.65	-4.72	8.15	2.72	-1.12	-0.35	-1.47	1006.18	53.00
1549066972525	2262030.00	82.00	-4.64	8.14	2.70	-4.72	8.15	2.73	-1.54	-0.28	-1.40	1006.18	91.00
1549066972573	2265547.00	82.00	-4.60	8.11	2.68	-4.72	8.15	2.73	-1.12	-0.42	-1.26	1006.18	14.00
1549066972627	2269303.00	82.00	-4.62	8.14	2.66	-4.72	8.15	2.73	-1.12	-0.42	-1.40	1006.18	18.00
1549066972676	2273402.00	82.00	-4.65	8.18	2.64	-4.72	8.15	2.73	-1.19	-0.21	-1.19	1006.18	46.00
1549066972730	2276902.00	82.00	-4.59	8.19	2.73	-4.72	8.15	2.74	-0.84	-0.56	-1.54	1006.18	7.00
1549066972778	2276768.00	82.00	-4.63	8.18	2.60	-4.71	8.16	2.72	0.21	-0.35	-1.33	1006.19	21.00
1549066972832	2268857.00	82.00	-4.66	8.12	2.65	-4.72	8.15	2.73	-1.96	-0.14	-1.26	1006.19	25.00
1549066972880	2254669.00	82.00	-4.60	8.20	2.69	-4.72	8.15	2.73	-0.98	0.35	-1.19	1006.19	85.00
1549066972936	2242917.00	82.00	-4.65	8.17	2.66	-4.72	8.15	2.72	-0.63	0.42	-0.91	1006.19	2.00
1549066972983	2237336.00	82.00	-4.62	8.16	2.66	-4.72	8.15	2.72	-1.26	0.42	-1.26	1006.19	23.00
1549066973038	2234876.00	82.00	-4.67	8.17	2.65	-4.72	8.15	2.72	-0.49	0.42	-1.26	1006.19	15.00
1549066973085	2232817.00	82.00	-4.65	8.18	2.61	-4.73	8.15	2.71	-1.12	0.42	-1.05	1006.19	26.00
1549066973139	2228451.00	82.00	-4.58	8.15	2.62	-4.73	8.15	2.71	-1.82	0.49	-1.12	1006.19	9.00
1549066973187	2221606.00	82.00	-4.62	8.20	2.63	-4.73	8.15	2.71	-1.54	0.42	-1.19	1006.19	33.00
1549066973241	2214907.00	82.00	-4.63	8.15	2.68	-4.73	8.15	2.71	-1.40	0.35	-1.19	1006.19	5.00
1549066973289	2209382.00	82.00	-4.62	8.18	2.62	-4.73	8.15	2.71	-1.26	0.42	-1.26	1006.19	90.00
1549066973342	2205041.00	82.00	-4.62	8.20	2.65	-4.73	8.15	2.71	-1.19	0.28	-1.26	1006.19	19.00
1549066973391	2201728.00	82.00	-4.66	8.20	2.62	-4.73	8.15	2.71	-1.26	0.28	-1.12	1006.19	33.00
1549066973445	2195255.00	82.00	-4.65	8.17	2.65	-4.73	8.15	2.71	-1.68	0.35	-0.91	1006.19	10.00
1549066973494	2191905.00	82.00	-4.61	8.17	2.66	-4.73	8.15	2.71	-0.84	0.28	-1.12	1006.19	16.00
1549066973548	2184040.00	82.00	-4.63	8.20	2.57	-4.73	8.16	2.70	-0.84	-0.07	-1.33	1006.19	27.00
1549066973595	2167005.00	82.00	-4.63	8.15	2.60	-4.73	8.16	2.70	-2.03	0.14	-0.98	1006.19	25.00
1549066973649	2148906.00	82.00	-4.62	8.18	2.62	-4.73	8.16	2.70	-1.26	0.14	-1.05	1006.19	43.00
1549066973698	2137051.00	82.00	-4.65	8.18	2.61	-4.73	8.16	2.69	-1.05	0.21	-1.05	1006.19	38.00
1549066973751	2131664.00	82.00	-4.65	8.15	2.61	-4.73	8.16	2.69	-1.05	0.28	-1.26	1006.19	4.00
1549066973799	2129697.00	82.00	-4.63	8.19	2.62	-4.73	8.16	2.68	-0.63	0.28	-1.19	1006.19	39.00
1549066973856	2126697.00	82.00	-4.59	8.18	2.60	-4.72	8.17	2.68	-0.56	0.28	-0.70	1006.19	12.00
1549066973902	2121522.00	82.00	-4.56	8.20	2.60	-4.72	8.17	2.68	-1.19	0.28	-0.77	1006.19	5.00
1549066973956	2117290.00	82.00	-4.63	8.18	2.62	-4.72	8.17	2.68	-1.26	-0.35	-1.26	1006.19	39.00
1549066974004	2116141.00	82.00	-4.62	8.22	2.56	-4.71	8.17	2.67	-0.77	-0.42	-1.33	1006.19	41.00
1549066974057	2118207.00	82.00	-4.67	8.20	2.59	-4.72	8.17	2.67	-0.56	-0.42	-1.40	1006.19	50.00
1549066974105	2122567.00	82.00	-4.60	8.21	2.58	-4.71	8.18	2.66	-0.35	-0.56	-1.26	1006.19	100.00
1549066974160	2128003.00	81.00	-4.59	8.15	2.61	-4.71	8.18	2.67	-1.12	-0.70	-1.19	1006.19	22.00
1549066974207	2133586.00	81.00	-4.64	8.17	2.61	-4.71	8.18	2.67	-1.19	-0.84	-1.19	1006.19	55.00
1549066974262	2139747.00	82.00	-4.64	8.18	2.62	-4.71	8.18	2.67	-0.49	-1.33	-1.68	1006.19	26.00
1549066974310	2142461.00	82.00	-4.63	8.22	2.59	-4.71	8.18	2.67	-0.63	-1.26	-1.61	1006.19	40.00
1549066974366	2136381.00	81.00	-4.62	8.17	2.62	-4.71	8.18	2.67	-1.75	-0.84	-1.12	1006.20	9.00
1549066974412	2127895.00	82.00	-4.62	8.18	2.64	-4.71	8.18	2.68	-1.33	-0.84	-1.33	1006.20	44.00
1549066974467	2126106.00	82.00	-4.60	8.19	2.58	-4.70	8.18	2.67	-0.91	-0.70	-1.19	1006.20	5.00
1549066974514	2131136.00	81.00	-4.59	8.15	2.66	-4.70	8.18	2.68	-1.47	-0.84	-1.61	1006.20	43.00
1549066974568	2139469.00	81.00	-4.61	8.23	2.62	-4.70	8.18	2.68	-0.35	-0.84	-1.54	1006.20	61.00
1549066974616	2147685.00	81.00	-4.65	8.16	2.60	-4.70	8.18	2.68	-0.77	-0.77	-1.33	1006.20	27.00
1549066974670	2154653.00	81.00	-4.64	8.19	2.56	-4.71	8.18	2.67	-1.12	-0.63	-1.26	1006.20	7.00
1549066974718	2160896.00	81.00	-4.59	8.19	2.63	-4.70	8.18	2.68	-1.40	-0.56	-1.33	1006.20	2.00
1549066974773	2166930.00	81.00	-4.61	8.16	2.55	-4.70	8.18	2.67	-0.98	-0.70	-1.47	1006.20	31.00
1549066974821	2174503.00	81.00	-4.62	8.25	2.57	-4.70	8.18	2.67	-0.98	-0.63	-1.47	1006.20	31.00
1549066974876	2183497.00	81.00	-4.63	8.19	2.62	-4.70	8.18	2.67	-0.84	-0.42	-1.26	1006.20	50.00
1549066974922	2191776.00	81.00	-4.61	8.19	2.62	-4.70	8.18	2.67	-0.77	-0.49	-1.26	1006.21	7.00
1549066974976	2199897.00	81.00	-4.61	8.20	2.60	-4.70	8.18	2.67	-0.91	-0.28	-1.12	1006.21	34.00
1549066975024	2207768.00	81.00	-4.63	8.15	2.69	-4.70	8.18	2.68	-1.05	-0.77	-1.47	1006.21	22.00
1549066975080	2210621.00	81.00	-4.63	8.25	2.63	-4.70	8.18	2.68	-0.07	-0.63	-1.33	1006.21	8.00
1549066975127	2204269.00	81.00	-4.63	8.17	2.54	-4.70	8.18	2.67	-0.91	-0.49	-1.12	1006.21	6.00
1549066975181	2192844.00	81.00	-4.61	8.21	2.60	-4.70	8.18	2.67	-1.26	-0.42	-1.19	1006.21	6.00
1549066975229	2184811.00	81.00	-4.59	8.22	2.58	-4.70	8.19	2.66	-1.12	-0.28	-1.19	1006.21	44.00
1549066975283	2182874.00	81.00	-4.62	8.20	2.60	-4.70	8.18	2.67	-1.40	-0.28	-1.40	1006.21	22.00
1549066975335	2185432.00	81.00	-4.62	8.20	2.62	-4.70	8.18	2.67	-0.98	-0.42	-1.54	1006.21	27.00
1549066975385	2189712.00	81.00	-4.64	8.19	2.58	-4.70	8.18	2.67	-1.12	-0.63	-1.33	1006.21	2.00
1549066975434	2197067.00	81.00	-4.62	8.18	2.58	-4.71	8.18	2.67	-1.75	-0.35	-1.47	1006.21	55.00
1549066975488	2199467.00	81.00	-4.62	8.21	2.59	-4.71	8.18	2.67	-1.54	-0.42	-1.33	1006.21	0.00
1549066975536	2202973.00	81.00	-4.60	8.18	2.60	-4.71	8.18	2.67	-1.68	-0.56	-1.47	1006.21	31.00
1549066975589	2208031.00	81.00	-4.61	8.23	2.59	-4.71	8.18	2.67	-1.40	-0.49	-1.54	1006.21	14.00
1549066975638	2213899.00	81.00	-4.61	8.22	2.63	-4.71	8.18	2.67	-1.47	-0.42	-1.54	1006.21	1.00
1549066975692	2219602.00	81.00	-4.62	8.18	2.59	-4.71	8.18	2.67	-1.61	-0.42	-1.54	1006.21	1.00
1549066975740	2224881.00	81.00	-4.64	8.17	2.67	-4.71	8.17	2.68	-1.96	-0.42	-1.33	1006.21	7.00
1549066975795	2229230.00	81.00	-4.61	8.15	2.68	-4.71	8.17	2.69	-1.47	-0.70	-1.54	1006.21	66.00
1549066975842	2228523.00	81.00	-4.66	8.21	2.63	-4.71	8.17	2.69	-0.21	-0.70	-1.75	1006.21	54.00
1549066975896	2219988.00	81.00	-4.66	8.19	2.64	-4.72	8.17	2.69	-1.19	-0.28	-1.26	1006.21	79.00
1549066975944	2206942.00	81.00	-4.63	8.19	2.70	-4.72	8.16	2.70	-1.26	0.35	-1.12	1006.21	30.00
1549066975999	2197762.00	81.00	-4.63	8.21	2.63	-4.72	8.17	2.70	-0.91	0.42	-1.19	1006.21	52.00
1549066976048	2193977.00	81.00	-4.62	8.17	2.62	-4.72	8.16	2.69	-1.26	0.56	-1.12	1006.21	25.00
1549066976102	2192916.00	81.00	-4.63	8.20	2.64	-4.72	8.16	2.69	-1.19	0.42	-1.40	1006.21	107.00
1549066976148	2191736.00	81.00	-4.65	8.16	2.61	-4.72	8.16	2.69	-1.12	0.28	-1.26	1006.21	22.00
1549066976202	2188484.00	81.00	-4.61	8.16	2.64	-4.72	8.16	2.69	-1.40	0.42	-1.05	1006.21	1.00
1549066976251	2183647.00	81.00	-4.58	8.20	2.66	-4.72	8.16	2.70	-1.68	0.42	-1.19	1006.21	14.00
1549066976305	2179220.00	81.00	-4.63	8.15	2.61	-4.72	8.16	2.69	-1.40	0.42	-1.19	1006.21	8.00
1549066976353	2175986.00	81.00	-4.63	8.17	2.62	-4.73	8.16	2.69	-1.47	0.42	-1.26	1006.21	14.00
1549066976407	2173714.00	81.00	-4.63	8.17	2.60	-4.73	8.16	2.69	-1.40	0.28	-1.19	1006.21	16.00
1549066976455	2172166.00	80.00	-4.64	8.17	2.62	-4.73	8.16	2.69	-1.47	0.14	-1.26	1006.21	51.00
1549066976509	2170658.00	80.00	-4.62	8.17	2.62	-4.73	8.16	2.69	-1.75	0.21	-0.98	1006.21	45.00
1549066976557	2168834.00	81.00	-4.64	8.19	2.66	-4.73	8.16	2.69	-1.26	0.42	-1.05	1006.21	65.00
1549066976611	2167195.00	81.00	-4.63	8.22	2.60	-4.73	8.16	2.69	-0.07	-0.07	-1.40	1006.21	42.00
1549066976660	2161091.00	81.00	-4.62	8.14	2.61	-4.73	8.16	2.69	-1.75	-0.07	-1.12	1006.21	2.00
1549066976716	2147302.00	80.00	-4.64	8.23	2.58	-4.73	8.16	2.68	-1.47	0.14	-1.12	1006.21	0.00
1549066976762	2133602.00	81.00	-4.59	8.20	2.60	-4.73	8.16	2.68	-1.82	0.14	-1.33	1006.20	20.00
1549066976816	2125388.00	81.00	-4.64	8.15	2.63	-4.73	8.16	2.69	-1.75	0.21	-1.05	1006.20	39.00
1549066976864	2121673.00	80.00	-4.65	8.20	2.61	-4.73	8.16	2.68	-0.70	0.28	-1.19	1006.20	8.00
1549066976920	2120437.00	80.00	-4.64	8.17	2.61	-4.73	8.16	2.68	-0.91	0.14	-1.12	1006.20	85.00
1549066976966	2119293.00	81.00	-4.57	8.15	2.61	-4.72	8.17	2.68	-1.19	0.14	-0.84	1006.20	33.00
1549066977020	2116257.00	81.00	-4.60	8.19	2.60	-4.72	8.17	2.68	-1.26	-0.28	-1.19	1006.21	13.00
1549066977068	2114391.00	80.00	-4.67	8.15	2.63	-4.72	8.16	2.68	-1.12	-0.49	-1.47	1006.21	39.00
1549066977122	2115394.00	80.00	-4.63	8.18	2.60	-4.73	8.16	2.68	-1.12	-0.49	-1.47	1006.21	18.00
1549066977170	2118700.00	80.00	-4.59	8.21	2.62	-4.72	8.17	2.68	-0.91	-0.77	-1.47	1006.20	63.00
1549066977225	2123654.00	80.00	-4.61	8.20	2.57	-4.72	8.17	2.68	-1.54	-1.19	-1.54	1006.21	62.00
1549066977272	2130451.00	80.00	-4.64	8.16	2.58	-4.72	8.17	2.68	-1.75	-1.19	-1.33	1006.21	7.00
1549066977326	2137679.00	80.00	-4.65	8.15	2.67	-4.72	8.16	2.69	-1.05	-1.19	-1.61	1006.21	30.00
1549066977374	2145619.00	80.00	-4.65	8.22	2.58	-4.72	8.17	2.68	-0.63	-1.33	-1.68	1006.21	46.00
1549066977429	2146126.00	80.00	-4.62	8.16	2.65	-4.72	8.16	2.69	-2.10	-1.05	-1.33	1006.21	25.00
1549066977477	2141702.00	80.00	-4.58	8.17	2.68	-4.71	8.16	2.70	-1.47	-0.98	-1.40	1006.21	38.00
1549066977531	2143101.00	80.00	-4.63	8.17	2.68	-4.71	8.16	2.71	-1.26	-0.77	-1.40	1006.21	4.00
1549066977580	2149352.00	80.00	-4.60	8.16	2.63	-4.71	8.16	2.71	-1.40	-0.63	-1.54	1006.21	46.00
1549066977633	2157490.00	80.00	-4.67	8.19	2.67	-4.72	8.16	2.71	-0.70	-0.63	-1.54	1006.21	7.00
1549066977681	2164897.00	80.00	-4.63	8.21	2.69	-4.71	8.16	2.71	-0.84	-0.63	-1.19	1006.21	50.00
1549066977736	2169505.00	80.00	-4.65	8.17	2.62	-4.72	8.16	2.71	-1.26	-0.56	-1.19	1006.21	41.00
1549066977782	2173498.00	80.00	-4.63	8.19	2.68	-4.71	8.16	2.72	-1.54	-0.56	-1.33	1006.21	4.00
1549066977837	2178067.00	80.00	-4.62	8.13	2.69	-4.72	8.16	2.72	-1.33	-0.63	-1.54	1006.21	26.00
1549066977885	2184048.00	80.00	-4.65	8.17	2.69	-4.72	8.15	2.73	-1.26	-0.49	-1.54	1006.21	55.00
1549066977939	2190293.00	80.00	-4.63	8.13	2.67	-4.72	8.15	2.73	-1.33	-0.49	-1.33	1006.21	9.00
1549066977987	2195805.00	80.00	-4.60	8.12	2.67	-4.72	8.15	2.73	-1.05	-0.56	-1.33	1006.22	30.00
1549066978041	2201702.00	80.00	-4.60	8.18	2.65	-4.72	8.15	2.73	-0.91	-0.28	-1.19	1006.22	13.00
1549066978089	2206725.00	80.00	-4.65	8.12	2.73	-4.72	8.15	2.74	-0.91	-0.77	-1.61	1006.22	18.00
1549066978145	2205941.00	80.00	-4.65	8.20	2.64	-4.72	8.15	2.73	-0.91	-0.56	-1.40	1006.22	49.00
1549066978191	2197922.00	80.00	-4.62	8.15	2.68	-4.72	8.15	2.74	-1.05	-0.35	-1.12	1006.22	38.00
1549066978245	2188374.00	80.00	-4.61	8.20	2.65	-4.72	8.15	2.73	-1.33	-0.42	-1.33	1006.22	17.00
1549066978294	2183012.00	80.00	-4.62	8.17	2.70	-4.71	8.15	2.74	-1.19	-0.42	-1.19	1006.22	17.00
1549066978349	2182793.00	80.00	-4.63	8.15	2.70	-4.71	8.15	2.74	-1.33	-0.35	-1.33	1006.22	36.00
1549066978395	2185518.00	80.00	-4.62	8.18	2.70	-4.71	8.15	2.74	-0.56	-0.35	-1.47	1006.22	5.00
1549066978450	2189326.00	80.00	-4.62	8.21	2.65	-4.71	8.16	2.74	-0.35	-0.42	-1.19	1006.22	30.00
1549066978497	2192304.00	80.00	-4.63	8.16	2.64	-4.71	8.16	2.73	-1.19	-0.28	-1.19	1006.22	14.00
1549066978551	2194387.00	80.00	-4.63	8.18	2.63	-4.71	8.16	2.73	-1.19	-0.28	-1.26	1006.22	6.00
1549066978599	2196897.00	80.00	-4.63	8.19	2.68	-4.71	8.16	2.73	-0.91	-0.35	-1.26	1006.22	17.00
1549066978656	2201569.00	80.00	-4.63	8.19	2.61	-4.71	8.16	2.72	-0.77	-0.35	-1.33	1006.22	4.00
1549066978702	2206601.00	80.00	-4.70	8.17	2.64	-4.72	8.16	2.72	-1.19	0.14	-1.12	1006.22	31.00
1549066978756	2209047.00	80.00	-4.63	8.22	2.64	-4.71	8.16	2.71	-0.77	1.05	-0.49	1006.22	8.00
1549066978804	2208393.00	80.00	-4.58	8.12	2.70	-4.71	8.16	2.72	-1.19	0.42	-1.05	1006.22	62.00
1549066978858	2202004.00	80.00	-4.62	8.26	2.60	-4.70	8.17	2.70	0.77	0.21	-0.91	1006.22	40.00
1549066978906	2188264.00	80.00	-4.63	8.15	2.66	-4.71	8.17	2.70	-0.77	0.49	-0.70	1006.22	39.00
1549066978960	2171270.00	80.00	-4.64	8.20	2.62	-4.71	8.17	2.70	-0.98	0.49	-0.84	1006.21	5.00
1549066979011	2156563.00	80.00	-4.63	8.16	2.60	-4.71	8.17	2.69	-0.63	0.70	-0.84	1006.21	13.00
1549066979065	2147624.00	80.00	-4.63	8.16	2.63	-4.71	8.17	2.69	-1.12	0.70	-0.91	1006.21	12.00
1549066979111	2142682.00	80.00	-4.61	8.21	2.64	-4.71	8.17	2.68	-0.63	0.56	-0.98	1006.21	57.00
1549066979167	2138545.00	80.00	-4.59	8.21	2.61	-4.70	8.18	2.68	-0.63	0.28	-0.70	1006.22	31.00
1549066979212	2133102.00	80.00	-4.60	8.24	2.60	-4.70	8.18	2.68	-1.19	0.35	-0.84	1006.22	35.00
1549066979266	2126856.00	80.00	-4.61	8.26	2.57	-4.70	8.18	2.67	-0.84	0.49	-0.91	1006.21	23.00
1549066979314	2121512.00	80.00	-4.60	8.21	2.57	-4.70	8.19	2.66	-0.70	0.49	-0.91	1006.21	15.00
1549066979369	2117716.00	80.00	-4.63	8.23	2.56	-4.70	8.19	2.65	-0.42	0.28	-1.05	1006.21	7.00
1549066979417	2114936.00	80.00	-4.60	8.20	2.53	-4.70	8.19	2.64	-1.05	0.21	-0.91	1006.21	2.00
1549066979471	2112786.00	80.00	-4.57	8.24	2.54	-4.69	8.20	2.64	-0.91	0.49	-0.77	1006.21	50.00
1549066979519	2109699.00	80.00	-4.64	8.24	2.57	-4.69	8.20	2.63	-0.21	0.07	-0.98	1006.21	21.00
1549066979575	2099746.00	80.00	-4.65	8.24	2.59	-4.69	8.20	2.63	-0.35	0.07	-0.84	1006.21	52.00
1549066979621	2085079.00	80.00	-4.57	8.23	2.56	-4.69	8.20	2.63	-1.26	0.07	-0.42	1006.22	30.00
1549066979675	2073603.00	80.00	-4.56	8.22	2.53	-4.68	8.21	2.62	-0.98	0.07	-0.91	1006.22	16.00
1549066979723	2068335.00	80.00	-4.59	8.25	2.51	-4.68	8.21	2.61	-0.84	0.42	-0.84	1006.22	20.00
1549066979777	2066693.00	80.00	-4.61	8.23	2.53	-4.68	8.21	2.61	-0.63	0.42	-1.05	1006.22	19.00
1549066979829	2066225.00	80.00	-4.58	8.22	2.57	-4.68	8.21	2.61	-0.56	0.21	-1.05	1006.22	34.00
1549066979880	2065529.00	80.00	-4.55	8.24	2.55	-4.67	8.22	2.61	-0.91	-0.28	-0.91	1006.22	54.00
1549066979928	2065419.00	80.00	-4.58	8.24	2.51	-4.68	8.22	2.61	-1.96	-0.63	-1.47	1006.22	24.00
1549066979982	2066997.00	80.00	-4.57	8.26	2.58	-4.68	8.21	2.62	-1.89	-0.49	-1.68	1006.22	47.00
1549066980030	2070653.00	80.00	-4.60	8.24	2.50	-4.68	8.21	2.61	-1.54	-0.49	-1.61	1006.22	31.00
1549066980086	2076011.00	80.00	-4.56	8.25	2.51	-4.68	8.21	2.61	-1.61	-0.91	-1.89	1006.22	33.00
1549066980132	2083578.00	80.00	-4.60	8.24	2.56	-4.68	8.21	2.62	-2.10	-1.26	-1.89	1006.22	21.00
1549066980185	2093356.00	80.00	-4.54	8.22	2.57	-4.68	8.21	2.63	-2.10	-1.75	-2.17	1006.22	44.00
1549066980235	2104119.00	80.00	-4.59	8.26	2.60	-4.68	8.21	2.64	-1.05	-2.10	-2.45	1006.22	22.00
1549066980289	2111637.00	80.00	-4.60	8.27	2.66	-4.68	8.20	2.65	-1.12	-1.82	-1.89	1006.22	35.00
1549066980337	2115913.00	80.00	-4.61	8.20	2.59	-4.68	8.20	2.65	-0.98	-1.54	-1.75	1006.22	27.00
1549066980391	2123505.00	80.00	-4.62	8.22	2.60	-4.68	8.20	2.65	-0.77	-1.26	-1.82	1006.22	38.00
1549066980439	2137347.00	80.00	-4.63	8.23	2.58	-4.68	8.20	2.65	-0.56	-0.98	-1.47	1006.22	65.00
1549066980493	2154900.00	80.00	-4.63	8.21	2.61	-4.68	8.20	2.65	-0.98	-0.91	-1.75	1006.22	1.00
1549066980541	2173272.00	80.00	-4.61	8.21	2.57	-4.68	8.20	2.65	-0.49	-0.91	-1.61	1006.22	11.00
1549066980595	2191023.00	80.00	-4.61	8.22	2.55	-4.68	8.20	2.64	-0.91	-0.84	-1.33	1006.22	0.00
1549066980644	2207240.00	80.00	-4.62	8.20	2.57	-4.69	8.20	2.64	-0.98	-0.63	-1.47	1006.22	98.00
1549066980697	2222896.00	80.00	-4.61	8.20	2.55	-4.69	8.20	2.64	-1.61	-0.70	-1.54	1006.22	22.00
1549066980745	2236832.00	80.00	-4.60	8.26	2.60	-4.69	8.20	2.64	-0.56	-0.35	-1.54	1006.22	43.00
1549066980799	2249221.00	80.00	-4.63	8.17	2.58	-4.69	8.20	2.64	-1.12	-0.49	-1.33	1006.22	9.00
1549066980847	2262500.00	80.00	-4.63	8.23	2.58	-4.69	8.19	2.65	-1.47	-0.42	-1.19	1006.22	6.00
1549066980901	2275169.00	80.00	-4.56	8.16	2.63	-4.69	8.19	2.65	-1.40	-0.77	-1.47	1006.22	35.00
1549066980949	2285608.00	80.00	-4.60	8.19	2.61	-4.69	8.19	2.66	-0.56	-0.84	-1.75	1006.22	35.00
1549066981003	2291963.00	80.00	-4.61	8.25	2.61	-4.69	8.19	2.66	-0.84	-0.49	-1.33	1006.22	67.00
1549066981055	2294694.00	80.00	-4.60	8.20	2.62	-4.69	8.19	2.66	-1.61	-0.35	-1.26	1006.22	36.00
1549066981106	2296451.00	80.00	-4.59	8.21	2.59	-4.69	8.19	2.66	-1.47	-0.35	-1.33	1006.22	28.00
1549066981154	2300289.00	80.00	-4.59	8.22	2.63	-4.69	8.19	2.67	-1.61	-0.35	-1.33	1006.22	57.00
1549066981208	2306349.00	80.00	-4.59	8.20	2.66	-4.69	8.19	2.68	-1.61	-0.42	-1.61	1006.22	32.00
1549066981256	2312680.00	80.00	-4.62	8.20	2.66	-4.69	8.18	2.68	-1.19	-0.56	-1.33	1006.22	22.00
1549066981309	2318999.00	80.00	-4.60	8.19	2.62	-4.69	8.18	2.68	-1.33	-0.42	-1.26	1006.22	49.00
1549066981357	2324967.00	80.00	-4.60	8.17	2.59	-4.69	8.18	2.68	-1.54	-0.42	-1.47	1006.22	76.00
1549066981412	2337128.00	80.00	-4.61	8.23	2.66	-4.69	8.18	2.69	-1.61	-0.49	-1.54	1006.22	46.00
1549066981460	2344014.00	80.00	-4.59	8.19	2.69	-4.69	8.18	2.70	-1.19	-0.35	-1.40	1006.22	13.00
1549066981516	2351451.00	81.00	-4.58	8.21	2.62	-4.69	8.18	2.70	-1.26	-0.42	-1.40	1006.22	17.00
1549066981562	2358659.00	80.00	-4.63	8.22	2.68	-4.69	8.18	2.70	-1.61	-0.42	-1.33	1006.22	36.00
1549066981616	2364952.00	80.00	-4.54	8.18	2.65	-4.69	8.18	2.71	-1.47	-0.56	-1.40	1006.22	29.00
1549066981664	2369693.00	81.00	-4.58	8.19	2.62	-4.69	8.18	2.70	-0.49	-0.63	-1.68	1006.23	23.00
1549066981718	2372131.00	80.00	-4.69	8.21	2.57	-4.69	8.18	2.70	-1.05	-0.21	-1.19	1006.22	30.00
1549066981766	2370558.00	81.00	-4.62	8.22	2.62	-4.70	8.18	2.69	-1.75	0.56	-1.12	1006.22	0.00
1549066981821	2367075.00	81.00	-4.59	8.17	2.70	-4.70	8.17	2.70	-1.68	0.49	-1.12	1006.22	0.00
1549066981869	2363906.00	81.00	-4.58	8.19	2.63	-4.70	8.17	2.70	-1.47	0.35	-1.05	1006.22	0.00
1549066981922	2361679.00	81.00	-4.64	8.19	2.66	-4.70	8.17	2.70	-1.26	0.49	-1.40	1006.22	0.00
1549066981970	2359722.00	81.00	-4.59	8.21	2.62	-4.70	8.17	2.70	-0.84	0.49	-1.26	1006.22	0.00
1549066982026	2357152.00	81.00	-4.63	8.20	2.62	-4.70	8.17	2.70	-1.26	0.42	-1.05	1006.22	0.00
1549066982072	2354089.00	81.00	-4.62	8.15	2.59	-4.71	8.17	2.69	-1.75	0.49	-1.05	1006.22	0.00
1549066982126	2350821.00	81.00	-4.61	8.20	2.66	-4.71	8.17	2.70	-1.82	0.35	-1.12	1006.22	0.00
1549066982174	2347730.00	81.00	-4.62	8.18	2.61	-4.71	8.17	2.70	-1.54	0.35	-1.33	1006.22	0.00
1549066982229	2345170.00	81.00	-4.67	8.21	2.61	-4.72	8.17	2.69	-1.33	0.28	-1.33	1006.22	0.00
1549066982277	2342813.00	81.00	-4.60	8.18	2.59	-4.72	8.17	2.69	-1.54	0.35	-1.05	1006.22	0.00
1549066982331	2340361.00	81.00	-4.58	8.18	2.62	-4.71	8.17	2.69	-1.12	0.56	-0.91	1006.22	0.00
1549066982379	2338223.00	81.00	-4.61	8.19	2.64	-4.71	8.17	2.69	-0.49	0.07	-1.40	1006.22	0.00
1549066982435	2334539.00	81.00	-4.62	8.20	2.62	-4.71	8.17	2.69	-1.26	0.07	-0.98	1006.22	0.00
1549066982481	2328282.00	81.00	-4.59	8.18	2.57	-4.71	8.17	2.68	-1.68	0.14	-0.91	1006.22	0.00
1549066982535	2321912.00	81.00	-4.66	8.18	2.63	-4.72	8.17	2.68	-1.12	0.21	-1.33	1006.22	0.00
1549066982583	2317621.00	81.00	-4.60	8.20	2.59	-4.72	8.17	2.68	-1.82	0.42	-1.12	1006.22	0.00
1549066982637	2314682.00	81.00	-4.61	8.19	2.63	-4.72	8.17	2.68	-1.33	0.49	-1.19	1006.22	0.00
1549066982686	2312323.00	81.00	-4.59	8.22	2.63	-4.71	8.17	2.68	-0.70	0.35	-1.19	1006.22	0.00
1549066982740	2309954.00	81.00	-4.58	8.16	2.65	-4.71	8.17	2.68	-1.19	0.35	-0.84	1006.22	0.00
1549066982787	2306857.00	81.00	-4.61	8.17	2.61	-4.71	8.17	2.68	-1.47	0.28	-0.70	1006.22	0.00
1549066982841	2303898.00	81.00	-4.58	8.19	2.63	-4.71	8.17	2.68	-0.98	0.28	-1.12	1006.22	0.00
1549066982889	2302163.00	82.00	-4.62	8.23	2.59	-4.70	8.18	2.68	-0.42	-0.35	-1.54	1006.22	0.00
1549066982945	2302459.00	82.00	-4.64	8.20	2.59	-4.71	8.18	2.67	-0.49	-0.56	-1.54	1006.22	0.00
1549066982991	2304757.00	81.00	-4.56	8.18	2.60	-4.70	8.18	2.68	-1.26	-0.98	-1.54	1006.23	0.00
1549066983046	2308629.00	81.00	-4.55	8.20	2.66	-4.69	8.18	2.68	-0.98	-1.47	-1.61	1006.23	0.00
1549066983095	2314860.00	82.00	-4.64	8.22	2.62	-4.69	8.18	2.68	-0.63	-2.10	-2.10	1006.23	0.00
1549066983148	2325166.00	81.00	-4.68	8.24	2.60	-4.70	8.18	2.68	-0.70	-1.82	-2.03	1006.23	0.00
1549066983196	2336918.00	81.00	-4.65	8.18	2.63	-4.70	8.18	2.69	-1.75	-1.26	-1.47	1006.23	0.00
1549066983250	2345541.00	82.00	-4.61	8.20	2.64	-4.70	8.18	2.69	-1.26	-1.05	-1.47	1006.23	0.00
1549066983298	2352813.00	82.00	-4.61	8.19	2.59	-4.70	8.18	2.69	-0.91	-0.70	-1.33	1006.23	0.00
1549066983352	2361665.00	82.00	-4.62	8.21	2.62	-4.70	8.18	2.69	-1.26	-0.84	-1.54	1006.23	0.00
1549066983401	2382785.00	82.00	-4.65	8.21	2.64	-4.70	8.18	2.69	-0.56	-0.91	-1.68	1006.23	0.00
1549066983455	2393668.00	82.00	-4.66	8.20	2.57	-4.70	8.18	2.68	-0.84	-0.84	-1.40	1006.23	0.00
1549066983503	2403682.00	82.00	-4.61	8.22	2.58	-4.70	8.18	2.68	-0.91	-0.77	-1.40	1006.23	0.00
1549066983557	2412726.00	82.00	-4.60	8.18	2.63	-4.70	8.18	2.68	-1.54	-0.63	-1.47	1006.23	0.00
1549066983605	2420870.00	82.00	-4.63	8.16	2.69	-4.70	8.17	2.69	-1.19	-0.63	-1.47	1006.23	0.00
1549066983659	2429317.00	82.00	-4.67	8.17	2.69	-4.71	8.17	2.70	-0.98	-0.56	-1.40	1006.23	0.00
1549066983707	2437174.00	82.00	-4.62	8.22	2.69	-4.71	8.17	2.71	-1.40	-0.63	-1.40	1006.23	0.00
1549066983760	2444414.00	82.00	-4.63	8.19	2.65	-4.71	8.17	2.71	-1.12	-0.56	-1.33	1006.23	0.00
1549066983813	2451653.00	82.00	-4.56	8.19	2.62	-4.70	8.17	2.71	-0.98	-0.56	-1.33	1006.23	0.00
1549066983865	2456730.00	82.00	-4.61	8.19	2.71	-4.70	8.17	2.71	-0.77	-0.77	-1.75	1006.23	0.00
1549066983912	2457000.00	82.00	-4.62	8.23	2.64	-4.70	8.17	2.71	-0.28	-0.49	-1.26	1006.23	0.00
1549066983966	2454480.00	82.00	-4.60	8.18	2.64	-4.69	8.17	2.71	-1.05	-0.42	-1.19	1006.23	0.00
1549066984014	2450900.00	82.00	-4.58	8.20	2.65	-4.69	8.17	2.71	-1.05	-0.35	-1.19	1006.23	0.00
1549066984067	2448811.00	82.00	-4.63	8.19	2.59	-4.69	8.17	2.70	-1.26	-0.28	-1.12	1006.23	0.00
1549066984115	2448544.00	82.00	-4.61	8.17	2.64	-4.70	8.17	2.70	-1.12	-0.28	-1.47	1006.23	0.00
1549066984169	2449627.00	82.00	-4.64	8.20	2.69	-4.70	8.17	2.71	-0.70	-0.49	-1.33	1006.23	0.00
1549066984218	2450904.00	82.00	-4.59	8.19	2.61	-4.69	8.17	2.70	-0.77	-0.35	-1.12	1006.23	0.00
1549066984273	2451719.00	82.00	-4.60	8.14	2.62	-4.70	8.17	2.70	-1.05	-0.28	-1.19	1006.23	0.00
1549066984320	2452463.00	82.00	-4.59	8.22	2.63	-4.69	8.18	2.70	-0.84	-0.35	-1.26	1006.23	0.00
1549066984376	2454702.00	82.00	-4.60	8.19	2.55	-4.69	8.18	2.69	-0.70	-0.35	-1.19	1006.23	0.00
1549066984422	2457718.00	82.00	-4.63	8.20	2.61	-4.69	8.18	2.69	-0.77	-0.28	-1.19	1006.23	0.00
1549066984476	2461317.00	81.00	-4.61	8.19	2.62	-4.69	8.18	2.69	-0.84	-0.28	-1.26	1006.23	0.00
1549066984524	2464744.00	81.00	-4.64	8.23	2.64	-4.69	8.18	2.69	-1.05	-0.35	-1.19	1006.23	0.00
1549066984578	2468165.00	81.00	-4.55	8.17	2.61	-4.69	8.18	2.68	-0.91	-0.28	-1.05	1006.23	0.00
1549066984627	2469626.00	82.00	-4.60	8.15	2.63	-4.69	8.18	2.68	-0.35	-0.56	-1.54	1006.24	0.00
1549066984681	2465760.00	81.00	-4.65	8.18	2.58	-4.69	8.19	2.68	0.07	-0.35	-1.12	1006.24	0.00
1549066984729	2455229.00	81.00	-4.61	8.21	2.62	-4.69	8.19	2.68	-1.19	-0.21	-1.05	1006.24	0.00
1549066984783	2443040.00	81.00	-4.60	8.25	2.63	-4.69	8.19	2.68	-1.12	-0.14	-1.19	1006.24	0.00
1549066984831	2432981.00	81.00	-4.54	8.25	2.61	-4.68	8.19	2.68	-1.40	0.14	-0.98	1006.24	0.00
1549066984886	2425542.00	81.00	-4.63	8.20	2.61	-4.69	8.19	2.67	-0.63	0.49	-1.12	1006.24	0.00
1549066984932	2418971.00	81.00	-4.63	8.19	2.58	-4.69	8.19	2.66	-0.14	0.42	-1.12	1006.24	0.00
1549066984986	2412997.00	81.00	-4.62	8.17	2.59	-4.69	8.19	2.66	-0.28	0.42	-0.77	1006.24	0.00
1549066985035	2406282.00	81.00	-4.60	8.20	2.62	-4.69	8.19	2.66	-1.19	0.77	-0.77	1006.24	0.00
1549066985089	2397990.00	81.00	-4.58	8.24	2.61	-4.69	8.19	2.66	-0.70	0.84	-0.70	1006.24	0.00
1549066985137	2388841.00	81.00	-4.58	8.24	2.55	-4.68	8.20	2.65	-0.56	0.77	-1.05	1006.24	0.00
1549066985191	2380658.00	81.00	-4.58	8.20	2.53	-4.68	8.20	2.64	-0.77	0.70	-0.91	1006.24	0.00
1549066985239	2372917.00	82.00	-4.58	8.20	2.55	-4.69	8.20	2.63	-1.26	0.56	-0.91	1006.24	0.00
1549066985293	2365471.00	82.00	-4.60	8.22	2.57	-4.69	8.20	2.63	-1.05	0.49	-0.91	1006.24	0.00
1549066985341	2357881.00	81.00	-4.59	8.24	2.51	-4.69	8.20	2.62	-1.19	0.42	-1.12	1006.23	0.00
1549066985395	2344026.00	82.00	-4.59	8.22	2.54	-4.69	8.20	2.62	-1.75	0.35	-0.98	1006.23	0.00
1549066985443	2336912.00	82.00	-4.63	8.22	2.57	-4.69	8.20	2.62	-1.05	0.14	-1.47	1006.23	0.00
1549066985498	2323951.00	82.00	-4.58	8.24	2.52	-4.69	8.20	2.62	-1.12	-0.21	-1.61	1006.23	0.00
1549066985547	2303765.00	82.00	-4.61	8.21	2.51	-4.70	8.20	2.62	-2.45	0.07	-1.33	1006.23	0.00
1549066985599	2284895.00	82.00	-4.60	8.26	2.56	-4.70	8.20	2.62	-1.89	0.07	-1.61	1006.23	0.00
1549066985648	2272435.00	82.00	-4.60	8.21	2.55	-4.70	8.20	2.62	-1.26	0.14	-1.40	1006.23	0.00
1549066985701	2265701.00	82.00	-4.60	8.20	2.57	-4.70	8.20	2.62	-1.54	0.14	-1.33	1006.23	0.00
1549066985749	2261462.00	82.00	-4.61	8.26	2.55	-4.70	8.20	2.62	-0.70	-0.14	-1.47	1006.23	0.00
1549066985806	2258404.00	82.00	-4.56	8.24	2.51	-4.69	8.20	2.61	-0.70	-0.49	-1.19	1006.23	0.00
1549066985852	2255390.00	82.00	-4.58	8.24	2.57	-4.69	8.20	2.62	-1.40	-0.77	-1.40	1006.23	0.00
1549066985906	2254748.00	82.00	-4.58	8.15	2.55	-4.69	8.20	2.62	-1.26	-0.91	-1.54	1006.23	0.00
1549066985954	2257800.00	82.00	-4.58	8.23	2.54	-4.69	8.20	2.62	-1.12	-1.33	-1.75	1006.23	0.00
1549066986008	2265488.00	82.00	-4.63	8.23	2.51	-4.69	8.20	2.62	-1.05	-1.54	-1.82	1006.23	0.00
1549066986056	2275733.00	82.00	-4.63	8.21	2.57	-4.70	8.20	2.63	-1.89	-1.54	-1.75	1006.23	0.00
1549066986110	2286793.00	82.00	-4.60	8.20	2.58	-4.70	8.20	2.64	-2.17	-1.40	-1.68	1006.24	0.00
1549066986158	2296503.00	82.00	-4.56	8.23	2.61	-4.69	8.19	2.65	-2.17	-1.26	-1.47	1006.24	0.00
1549066986212	2305865.00	82.00	-4.61	8.22	2.63	-4.69	8.19	2.65	-1.68	-1.05	-1.33	1006.24	0.00
1549066986260	2314787.00	82.00	-4.63	8.16	2.68	-4.69	8.19	2.67	-0.56	-1.19	-2.03	1006.24	0.00
1549066986316	2319999.00	82.00	-4.63	8.29	2.56	-4.69	8.19	2.66	-0.07	-1.05	-1.75	1006.24	0.00
1549066986362	2318571.00	82.00	-4.61	8.17	2.55	-4.69	8.19	2.66	-1.54	-0.70	-1.19	1006.24	0.00
1549066986417	2314615.00	82.00	-4.58	8.23	2.58	-4.69	8.19	2.66	-1.61	-0.56	-1.40	1006.24	0.00
1549066986465	2313367.00	82.00	-4.63	8.20	2.63	-4.69	8.19	2.66	-1.54	-0.49	-1.26	1006.24	0.00
1549066986518	2316102.00	82.00	-4.58	8.16	2.64	-4.70	8.18	2.67	-2.03	-0.63	-1.54	1006.24	0.00
1549066986566	2320280.00	82.00	-4.60	8.18	2.65	-4.70	8.18	2.68	-1.26	-0.70	-1.61	1006.24	0.00
1549066986625	2324644.00	82.00	-4.65	8.20	2.63	-4.70	8.18	2.68	-0.98	-0.63	-1.33	1006.24	0.00
1549066986669	2328585.00	82.00	-4.60	8.22	2.62	-4.70	8.18	2.68	-1.19	-0.49	-1.40	1006.24	0.00
1549066986725	2332419.00	82.00	-4.60	8.16	2.63	-4.70	8.18	2.68	-1.40	-0.49	-1.40	1006.24	0.00
1549066986771	2336474.00	82.00	-4.56	8.16	2.61	-4.70	8.18	2.69	-1.40	-0.49	-1.40	1006.24	0.00
1549066986825	2341659.00	82.00	-4.58	8.19	2.62	-4.69	8.18	2.69	-1.40	-0.49	-1.40	1006.24	0.00
1549066986873	2347191.00	82.00	-4.59	8.21	2.65	-4.69	8.18	2.69	-1.54	-0.42	-1.40	1006.24	0.00
1549066986927	2352407.00	82.00	-4.59	8.20	2.65	-4.69	8.18	2.70	-1.26	-0.49	-1.40	1006.24	0.00
1549066986975	2357227.00	82.00	-4.60	8.17	2.64	-4.69	8.18	2.70	-0.98	-0.49	-1.40	1006.24	0.00
1549066987030	2362554.00	82.00	-4.60	8.18	2.62	-4.69	8.18	2.70	-1.26	-0.28	-1.12	1006.24	0.00
1549066987078	2367724.00	82.00	-4.58	8.16	2.73	-4.69	8.17	2.71	-1.26	-0.70	-1.61	1006.24	0.00
1549066987131	2370123.00	82.00	-4.57	8.19	2.64	-4.69	8.18	2.71	-0.56	-0.56	-1.40	1006.24	0.00
1549066987179	2366380.00	82.00	-4.61	8.17	2.60	-4.69	8.18	2.70	-1.33	-0.42	-1.19	1006.24	0.00
1549066987235	2359115.00	82.00	-4.63	8.20	2.67	-4.69	8.17	2.71	-1.47	-0.42	-1.40	1006.24	0.00
1549066987282	2353201.00	82.00	-4.62	8.19	2.62	-4.70	8.17	2.71	-1.61	-0.35	-1.33	1006.23	0.00
1549066987336	2351838.00	82.00	-4.58	8.18	2.66	-4.70	8.17	2.71	-1.61	-0.35	-1.40	1006.23	0.00
1549066987388	2355942.00	82.00	-4.66	8.16	2.63	-4.70	8.17	2.71	-0.91	-0.42	-1.47	1006.23	0.00
1549066987438	2358948.00	82.00	-4.62	8.20	2.59	-4.70	8.17	2.70	-0.70	-0.14	-1.26	1006.23	0.00
1549066987487	2359934.00	82.00	-4.61	8.16	2.70	-4.70	8.17	2.71	-1.33	0.21	-1.19	1006.24	0.00
1549066987541	2359089.00	82.00	-4.59	8.18	2.69	-4.70	8.17	2.71	-0.98	0.49	-1.19	1006.24	0.00
1549066987589	2358204.00	82.00	-4.61	8.19	2.61	-4.70	8.17	2.70	-0.77	0.49	-1.12	1006.24	0.00
1549066987643	2356848.00	82.00	-4.62	8.18	2.66	-4.71	8.17	2.71	-1.33	0.56	-1.33	1006.24	0.00
1549066987691	2353968.00	81.00	-4.59	8.15	2.63	-4.71	8.17	2.71	-1.40	0.56	-1.19	1006.24	0.00
1549066987746	2349884.00	81.00	-4.62	8.20	2.62	-4.71	8.17	2.70	-1.33	0.49	-1.19	1006.24	0.00
1549066987793	2345306.00	81.00	-4.65	8.15	2.62	-4.72	8.16	2.70	-1.40	0.49	-1.12	1006.24	0.00
1549066987847	2340169.00	81.00	-4.62	8.22	2.64	-4.72	8.16	2.70	-1.47	0.63	-1.12	1006.24	0.00
1549066987895	2335004.00	81.00	-4.64	8.21	2.58	-4.72	8.17	2.69	0.21	0.14	-1.47	1006.24	0.00
1549066987949	2325976.00	81.00	-4.63	8.18	2.62	-4.72	8.17	2.69	-1.19	0.14	-1.19	1006.24	0.00
1549066987997	2310667.00	81.00	-4.59	8.23	2.61	-4.71	8.17	2.69	-1.75	0.28	-0.91	1006.24	0.00
1549066988051	2295948.00	81.00	-4.57	8.19	2.67	-4.71	8.17	2.69	-1.47	0.35	-1.19	1006.24	0.00
1549066988099	2285176.00	81.00	-4.62	8.20	2.62	-4.71	8.17	2.69	-1.40	0.42	-1.05	1006.24	0.00
1549066988153	2278442.00	81.00	-4.64	8.20	2.63	-4.71	8.17	2.69	-1.05	0.42	-1.33	1006.23	0.00
1549066988202	2274442.00	81.00	-4.62	8.19	2.65	-4.71	8.17	2.69	-0.84	0.35	-1.26	1006.23	0.00
1549066988256	2269679.00	81.00	-4.62	8.21	2.60	-4.71	8.17	2.69	-1.54	0.28	-0.84	1006.23	0.00
1549066988304	2263627.00	81.00	-4.55	8.14	2.68	-4.71	8.17	2.69	-1.82	0.28	-0.84	1006.23	0.00
1549066988358	2257164.00	81.00	-4.59	8.15	2.65	-4.71	8.17	2.70	-1.47	0.28	-1.05	1006.23	0.00
1549066988406	2252070.00	81.00	-4.65	8.19	2.63	-4.71	8.17	2.69	-0.63	0.14	-1.33	1006.23	0.00
1549066988460	2249337.00	81.00	-4.62	8.19	2.61	-4.71	8.17	2.69	-1.19	-0.21	-1.54	1006.23	0.00
1549066988508	2248587.00	81.00	-4.63	8.20	2.60	-4.71	8.17	2.69	-0.91	-0.42	-1.33	1006.23	0.00
1549066988561	2248947.00	81.00	-4.63	8.15	2.64	-4.72	8.17	2.69	-1.40	-0.56	-1.33	1006.23	0.00
1549066988610	2250376.00	81.00	-4.62	8.26	2.60	-4.71	8.17	2.69	-0.77	-0.49	-1.40	1006.23	0.00
1549066988666	2253378.00	81.00	-4.58	8.17	2.65	-4.70	8.17	2.69	-0.21	-1.12	-1.68	1006.23	0.00
1549066988712	2257475.00	81.00	-4.64	8.23	2.65	-4.70	8.17	2.69	-0.70	-1.33	-1.61	1006.23	0.00
1549066988766	2257493.00	81.00	-4.63	8.19	2.63	-4.70	8.17	2.70	-1.47	-1.47	-1.54	1006.23	0.00
1549066988814	2255656.00	81.00	-4.63	8.17	2.65	-4.71	8.17	2.70	-1.89	-1.54	-1.82	1006.23	0.00
1549066988868	2257317.00	80.00	-4.63	8.20	2.62	-4.71	8.17	2.70	-1.89	-1.05	-1.40	1006.23	0.00
1549066988916	2262681.00	80.00	-4.64	8.15	2.66	-4.71	8.16	2.71	-1.89	-1.05	-1.54	1006.22	0.00
1549066988970	2270092.00	81.00	-4.64	8.22	2.67	-4.71	8.16	2.71	-0.98	-1.05	-1.47	1006.22	0.00
1549066989018	2278367.00	81.00	-4.62	8.19	2.66	-4.71	8.16	2.71	-0.84	-0.98	-1.40	1006.22	0.00
1549066989072	2286201.00	80.00	-4.63	8.15	2.61	-4.71	8.16	2.71	-0.63	-0.84	-1.40	1006.23	0.00
1549066989120	2294189.00	80.00	-4.66	8.18	2.67	-4.71	8.16	2.71	-1.33	-0.70	-1.47	1006.23	0.00
1549066989175	2301885.00	80.00	-4.58	8.20	2.65	-4.71	8.16	2.72	-1.19	-0.63	-1.40	1006.23	0.00
1549066989222	2309026.00	80.00	-4.62	8.22	2.63	-4.71	8.16	2.71	-1.12	-0.56	-1.26	1006.23	0.00
1549066989276	2316354.00	80.00	-4.61	8.18	2.67	-4.71	8.16	2.72	-1.05	-0.56	-1.40	1006.23	0.00
1549066989324	2323290.00	80.00	-4.63	8.16	2.63	-4.71	8.16	2.71	-0.84	-0.63	-1.26	1006.23	0.00
1549066989379	2336907.00	80.00	-4.63	8.16	2.69	-4.71	8.16	2.72	-0.98	-0.35	-1.05	1006.23	0.00
1549066989427	2341065.00	80.00	-4.62	8.16	2.65	-4.71	8.16	2.72	-0.56	-0.70	-1.47	1006.23	0.00
1549066989481	2338265.00	80.00	-4.63	8.20	2.61	-4.71	8.17	2.71	-0.56	-0.56	-1.40	1006.23	0.00
1549066989529	2329079.00	80.00	-4.61	8.21	2.60	-4.70	8.17	2.70	-0.84	-0.49	-1.12	1006.23	0.00
1549066989583	2319400.00	80.00	-4.58	8.20	2.63	-4.70	8.17	2.70	-1.05	-0.28	-1.19	1006.22	0.00
1549066989631	2313867.00	80.00	-4.56	8.18	2.58	-4.69	8.18	2.70	-0.98	-0.28	-1.12	1006.22	0.00
1549066989687	2311834.00	80.00	-4.58	8.20	2.70	-4.69	8.18	2.70	-1.26	-0.28	-1.33	1006.22	0.00
1549066989733	2312069.00	80.00	-4.63	8.17	2.68	-4.69	8.17	2.71	-0.56	-0.42	-1.33	1006.22	0.00
1549066989788	2313497.00	80.00	-4.63	8.21	2.60	-4.69	8.18	2.70	-0.35	-0.49	-1.19	1006.22	0.00
1549066989836	2314016.00	80.00	-4.61	8.18	2.62	-4.69	8.18	2.70	-1.12	-0.21	-1.19	1006.22	0.00
1549066989889	2314092.00	80.00	-4.58	8.23	2.62	-4.69	8.18	2.69	-0.91	-0.21	-1.12	1006.22	0.00
1549066989937	2315002.00	80.00	-4.61	8.19	2.62	-4.69	8.18	2.69	-0.77	-0.35	-1.19	1006.22	0.00
1549066989991	2317042.00	80.00	-4.61	8.15	2.69	-4.69	8.18	2.70	-0.98	-0.28	-1.26	1006.21	0.00
1549066990039	2320047.00	79.00	-4.59	8.21	2.60	-4.69	8.18	2.69	-0.91	-0.28	-1.19	1006.21	0.00
1549066990096	2323070.00	79.00	-4.59	8.22	2.62	-4.69	8.18	2.69	-0.98	-0.28	-1.19	1006.21	0.00
1549066990141	2325221.00	80.00	-4.66	8.24	2.60	-4.69	8.18	2.69	-1.12	0.21	-1.05	1006.21	0.00
1549066990196	2325407.00	80.00	-4.59	8.20	2.62	-4.69	8.19	2.68	-0.28	0.42	-1.12	1006.21	0.00
1549066990244	2319989.00	80.00	-4.62	8.27	2.57	-4.68	8.19	2.67	0.49	0.35	-1.05	1006.21	0.00
1549066990298	2305246.00	80.00	-4.60	8.19	2.55	-4.68	8.20	2.66	-0.70	0.42	-0.77	1006.21	0.00
1549066990346	2284095.00	80.00	-4.56	8.20	2.61	-4.68	8.20	2.66	-1.54	0.49	-0.91	1006.21	0.00
1549066990401	2264076.00	80.00	-4.57	8.24	2.59	-4.68	8.20	2.66	-1.05	0.49	-1.05	1006.21	0.00
1549066990452	2249755.00	79.00	-4.60	8.19	2.57	-4.68	8.20	2.65	-1.12	0.56	-1.05	1006.21	0.00
1549066990502	2240259.00	79.00	-4.60	8.20	2.54	-4.69	8.20	2.65	-1.05	0.42	-1.47	1006.21	0.00
1549066990550	2233057.00	80.00	-4.59	8.26	2.57	-4.69	8.20	2.64	-1.40	0.28	-1.19	1006.21	0.00
1549066990605	2224289.00	80.00	-4.58	8.24	2.56	-4.69	8.20	2.64	-1.96	0.28	-1.26	1006.21	0.00
1549066990653	2214423.00	79.00	-4.62	8.16	2.61	-4.70	8.19	2.65	-2.10	0.21	-1.61	1006.21	0.00
1549066990707	2205671.00	79.00	-4.60	8.20	2.57	-4.70	8.19	2.65	-1.89	0.21	-1.75	1006.21	0.00
1549066990755	2199452.00	79.00	-4.61	8.23	2.56	-4.71	8.18	2.65	-1.89	0.35	-1.61	1006.21	0.00
1549066990808	2194172.00	79.00	-4.60	8.25	2.59	-4.71	8.18	2.65	-1.68	0.42	-1.40	1006.21	0.00
1549066990856	2189213.00	79.00	-4.63	8.19	2.58	-4.71	8.18	2.65	-1.19	0.28	-1.19	1006.21	0.00
1549066990910	2184113.00	79.00	-4.62	8.20	2.58	-4.71	8.18	2.65	-1.47	0.21	-1.19	1006.21	0.00
1549066990958	2178943.00	79.00	-4.59	8.21	2.57	-4.71	8.18	2.65	-1.61	0.35	-0.98	1006.21	0.00
1549066991016	2173645.00	79.00	-4.62	8.15	2.59	-4.71	8.18	2.65	-0.63	0.21	-1.26	1006.21	0.00
1549066991062	2168021.00	79.00	-4.59	8.23	2.56	-4.71	8.19	2.64	-0.35	-0.07	-1.40	1006.21	0.00
1549066991116	2154314.00	79.00	-4.60	8.15	2.55	-4.71	8.19	2.64	-1.96	-0.07	-0.91	1006.21	0.00
1549066991164	2134525.00	79.00	-4.58	8.23	2.56	-4.70	8.19	2.64	-1.26	-0.21	-1.19	1006.21	0.00
1549066991218	2118265.00	79.00	-4.59	8.22	2.60	-4.70	8.19	2.64	-1.05	-0.28	-1.26	1006.20	0.00
1549066991266	2110208.00	79.00	-4.60	8.16	2.60	-4.70	8.19	2.65	-1.05	-0.35	-1.40	1006.20	0.00
1549066991320	2108385.00	79.00	-4.63	8.17	2.55	-4.70	8.19	2.64	-0.63	-0.49	-1.47	1006.20	0.00
1549066991372	2110490.00	79.00	-4.58	8.19	2.57	-4.70	8.19	2.64	-0.91	-0.77	-1.33	1006.20	0.00
1549066991422	2110981.00	79.00	-4.59	8.22	2.59	-4.70	8.19	2.65	-1.47	-1.12	-1.47	1006.20	0.00
1549066991470	2113084.00	79.00	-4.58	8.22	2.59	-4.70	8.19	2.65	-1.82	-1.33	-1.68	1006.20	0.00
1549066991526	2117901.00	79.00	-4.62	8.18	2.62	-4.70	8.19	2.66	-1.68	-1.33	-1.75	1006.20	0.00
1549066991572	2124956.00	79.00	-4.65	8.27	2.64	-4.70	8.18	2.67	-1.54	-1.19	-1.61	1006.20	0.00
1549066991626	2132882.00	79.00	-4.62	8.21	2.63	-4.70	8.18	2.67	-1.61	-1.05	-1.54	1006.20	0.00
1549066991674	2141337.00	78.00	-4.59	8.16	2.62	-4.70	8.18	2.68	-1.68	-1.12	-1.54	1006.20	0.00
1549066991728	2149989.00	78.00	-4.66	8.18	2.61	-4.71	8.17	2.68	-2.03	-1.12	-1.40	1006.20	0.00
1549066991777	2158006.00	79.00	-4.57	8.14	2.67	-4.70	8.17	2.69	-1.54	-1.05	-1.40	1006.20	0.00
1549066991831	2162997.00	79.00	-4.62	8.20	2.66	-4.70	8.17	2.70	-0.14	-1.26	-1.96	1006.20	0.00
1549066991879	2161075.00	79.00	-4.63	8.19	2.61	-4.70	8.17	2.70	-1.19	-0.98	-1.54	1006.20	0.00
1549066991933	2154532.00	79.00	-4.63	8.20	2.64	-4.70	8.17	2.70	-2.03	-0.77	-1.33	1006.20	0.00
1549066991981	2150245.00	79.00	-4.60	8.21	2.68	-4.70	8.17	2.71	-1.47	-0.63	-1.40	1006.20	0.00
1549066992035	2151934.00	78.00	-4.59	8.20	2.66	-4.70	8.17	2.71	-1.19	-0.56	-1.33	1006.20	0.00
1549066992083	2157501.00	78.00	-4.62	8.19	2.66	-4.70	8.17	2.71	-1.40	-0.63	-1.68	1006.21	0.00
1549066992138	2164440.00	78.00	-4.61	8.19	2.66	-4.70	8.17	2.71	-0.70	-0.70	-1.47	1006.21	0.00
1549066992185	2171286.00	78.00	-4.58	8.15	2.66	-4.70	8.17	2.72	-1.05	-0.63	-1.33	1006.21	0.00
1549066992239	2176810.00	78.00	-4.60	8.20	2.64	-4.70	8.17	2.72	-1.54	-0.49	-1.40	1006.21	0.00
1549066992287	2181805.00	78.00	-4.59	8.18	2.64	-4.70	8.17	2.72	-1.54	-0.49	-1.47	1006.21	0.00
1549066992341	2187233.00	78.00	-4.63	8.17	2.70	-4.70	8.17	2.73	-1.19	-0.56	-1.47	1006.21	0.00
1549066992389	2194025.00	78.00	-4.62	8.16	2.64	-4.70	8.16	2.72	-1.26	-0.42	-1.40	1006.21	0.00
1549066992443	2201036.00	78.00	-4.63	8.15	2.64	-4.70	8.16	2.72	-1.12	-0.42	-1.40	1006.21	0.00
1549066992491	2208251.00	78.00	-4.63	8.16	2.66	-4.71	8.16	2.72	-1.05	-0.56	-1.40	1006.21	0.00
1549066992545	2215069.00	78.00	-4.60	8.17	2.68	-4.70	8.16	2.73	-1.33	-0.28	-1.19	1006.20	0.00
1549066992594	2220776.00	78.00	-4.61	8.16	2.75	-4.70	8.16	2.74	-1.12	-0.70	-1.68	1006.20	0.00
1549066992647	2221410.00	78.00	-4.64	8.18	2.67	-4.70	8.16	2.74	-0.49	-0.56	-1.47	1006.20	0.00
1549066992695	2214860.00	78.00	-4.61	8.17	2.65	-4.70	8.16	2.73	-1.33	-0.42	-1.19	1006.20	0.00
1549066992749	2205533.00	78.00	-4.61	8.16	2.69	-4.70	8.16	2.74	-1.40	-0.35	-1.26	1006.20	0.00
1549066992798	2199469.00	78.00	-4.57	8.16	2.63	-4.70	8.16	2.73	-1.19	-0.28	-1.19	1006.20	0.00
1549066992851	2199131.00	78.00	-4.59	8.13	2.72	-4.70	8.16	2.74	-1.54	-0.35	-1.47	1006.20	0.00
1549066992903	2201832.00	78.00	-4.61	8.14	2.72	-4.70	8.15	2.75	-0.91	-0.42	-1.40	1006.20	0.00
1549066992953	2206044.00	78.00	-4.62	8.18	2.67	-4.70	8.16	2.75	-1.05	-0.49	-1.12	1006.20	0.00
1549066993002	2209204.00	78.00	-4.63	8.16	2.69	-4.71	8.15	2.75	-1.33	-0.35	-1.40	1006.20	0.00
1549066993056	2211824.00	78.00	-4.59	8.17	2.69	-4.70	8.15	2.75	-1.47	-0.42	-1.47	1006.20	0.00
1549066993104	2215113.00	78.00	-4.63	8.19	2.66	-4.71	8.15	2.75	-1.19	-0.42	-1.33	1006.20	0.00
1549066993170	2218963.00	78.00	-4.63	8.15	2.70	-4.71	8.15	2.75	-1.05	-0.28	-1.26	1006.20	0.00
1549066993205	2224042.00	78.00	-4.64	8.21	2.67	-4.71	8.15	2.74	-0.84	0.14	-1.33	1006.21	0.00
1549066993260	2228558.00	78.00	-4.60	8.19	2.66	-4.71	8.16	2.74	-0.56	0.49	-1.05	1006.21	0.00
1549066993308	2231929.00	78.00	-4.63	8.20	2.66	-4.71	8.16	2.73	-0.91	0.42	-0.98	1006.21	0.00
1549066993362	2234048.00	78.00	-4.59	8.13	2.68	-4.71	8.16	2.74	-1.19	0.49	-1.12	1006.21	0.00
1549066993410	2230962.00	78.00	-4.63	8.17	2.69	-4.71	8.16	2.74	-0.70	0.14	-1.68	1006.21	0.00
1549066993465	2220394.00	78.00	-4.62	8.20	2.67	-4.71	8.16	2.73	-0.63	0.21	-1.19	1006.21	0.00
1549066993512	2203502.00	78.00	-4.63	8.17	2.67	-4.71	8.16	2.73	-1.61	0.42	-0.91	1006.21	0.00
1549066993567	2189015.00	78.00	-4.56	8.22	2.62	-4.70	8.16	2.72	-1.05	0.49	-1.19	1006.21	0.00
1549066993618	2179705.00	78.00	-4.64	8.14	2.70	-4.71	8.16	2.73	-1.12	0.56	-1.05	1006.21	0.00
1549066993668	2174164.00	78.00	-4.66	8.19	2.72	-4.71	8.15	2.73	-1.26	0.49	-1.26	1006.21	0.00
1549066993716	2170408.00	78.00	-4.63	8.21	2.70	-4.71	8.15	2.73	-0.91	0.35	-1.26	1006.21	0.00
1549066993771	2164883.00	78.00	-4.64	8.16	2.68	-4.71	8.15	2.73	-1.40	0.35	-0.91	1006.21	0.00
1549066993819	2157917.00	78.00	-4.56	8.16	2.65	-4.71	8.15	2.73	-1.75	0.35	-1.12	1006.21	0.00
1549066993873	2151642.00	78.00	-4.64	8.17	2.66	-4.71	8.15	2.73	-1.33	0.21	-1.19	1006.21	0.00
1549066993921	2147086.00	78.00	-4.64	8.18	2.61	-4.72	8.15	2.72	-1.05	0.28	-1.26	1006.21	0.00
1549066993975	2144326.00	78.00	-4.64	8.16	2.67	-4.72	8.15	2.73	-1.26	0.28	-1.26	1006.21	0.00
1549066994023	2142253.00	78.00	-4.59	8.17	2.66	-4.72	8.15	2.73	-1.19	0.28	-1.12	1006.21	0.00
1549066994077	2139658.00	78.00	-4.62	8.19	2.62	-4.72	8.15	2.72	-1.40	0.21	-1.19	1006.21	0.00
1549066994125	2137281.00	78.00	-4.62	8.15	2.68	-4.72	8.15	2.73	-1.75	0.14	-0.98	1006.21	0.00
1549066994179	2134880.00	78.00	-4.63	8.22	2.62	-4.72	8.16	2.72	-0.84	0.35	-1.05	1006.20	0.00
1549066994227	2133498.00	78.00	-4.61	8.18	2.62	-4.71	8.16	2.71	0.21	-0.42	-1.54	1006.20	0.00
1549066994281	2128694.00	78.00	-4.63	8.13	2.65	-4.72	8.16	2.71	-1.61	-0.35	-1.12	1006.20	0.00
1549066994329	2118390.00	78.00	-4.59	8.18	2.63	-4.71	8.16	2.71	-0.91	-0.35	-1.12	1006.20	0.00
1549066994386	2110243.00	78.00	-4.63	8.23	2.61	-4.71	8.17	2.70	-0.49	-0.42	-1.40	1006.20	0.00
1549066994431	2108982.00	77.00	-4.64	8.11	2.64	-4.71	8.16	2.70	-0.91	-0.35	-1.33	1006.20	0.00
1549066994485	2112465.00	77.00	-4.60	8.23	2.65	-4.71	8.17	2.70	-0.49	-0.56	-1.33	1006.20	0.00
1549066994533	2118274.00	78.00	-4.62	8.17	2.61	-4.70	8.17	2.70	-0.70	-0.91	-1.33	1006.21	0.00
1549066994588	2123720.00	78.00	-4.63	8.15	2.60	-4.71	8.17	2.70	-1.19	-1.05	-1.40	1006.21	0.00
1549066994637	2128203.00	78.00	-4.62	8.20	2.61	-4.71	8.17	2.70	-1.40	-1.12	-1.47	1006.20	0.00
1549066994691	2133571.00	77.00	-4.61	8.20	2.66	-4.70	8.17	2.70	-1.54	-1.05	-1.40	1006.20	0.00
1549066994739	2139605.00	78.00	-4.62	8.18	2.66	-4.70	8.17	2.71	-1.05	-0.98	-1.40	1006.20	0.00
1549066994792	2147174.00	78.00	-4.63	8.19	2.63	-4.70	8.17	2.70	-0.91	-0.84	-1.26	1006.20	0.00
1549066994840	2156133.00	77.00	-4.58	8.24	2.63	-4.70	8.17	2.70	-0.84	-0.77	-1.26	1006.20	0.00
1549066994896	2165569.00	77.00	-4.61	8.18	2.62	-4.69	8.18	2.70	-0.98	-0.84	-1.12	1006.20	0.00
1549066994942	2174571.00	78.00	-4.56	8.18	2.65	-4.69	8.18	2.70	-1.12	-0.56	-1.19	1006.20	0.00
1549066994997	2182452.00	78.00	-4.62	8.17	2.68	-4.69	8.18	2.71	-0.49	-1.05	-1.61	1006.20	0.00
1549066995045	2187427.00	77.00	-4.61	8.22	2.65	-4.69	8.18	2.71	-0.07	-0.84	-1.33	1006.20	0.00
1549066995099	2185854.00	77.00	-4.61	8.21	2.67	-4.68	8.18	2.71	-1.19	-0.63	-1.05	1006.20	0.00
1549066995147	2179366.00	77.00	-4.60	8.23	2.65	-4.68	8.18	2.71	-0.98	-0.49	-1.19	1006.20	0.00
1549066995201	2175483.00	77.00	-4.60	8.21	2.62	-4.68	8.18	2.70	-0.77	-0.28	-0.98	1006.20	0.00
1549066995249	2177050.00	77.00	-4.60	8.20	2.69	-4.68	8.18	2.71	-1.40	-0.49	-1.26	1006.20	0.00
1549066995305	2181456.00	77.00	-4.62	8.22	2.69	-4.68	8.18	2.71	-0.42	-0.56	-1.40	1006.20	0.00
1549066995353	2192994.00	77.00	-4.60	8.18	2.63	-4.68	8.18	2.71	-0.49	-0.56	-1.19	1006.20	0.00
1549066995405	2197895.00	77.00	-4.57	8.20	2.64	-4.68	8.18	2.71	-1.19	-0.35	-1.26	1006.20	0.00
1549066995454	2202315.00	77.00	-4.57	8.20	2.69	-4.67	8.18	2.71	-1.12	-0.42	-1.19	1006.20	0.00
1549066995508	2207559.00	77.00	-4.60	8.17	2.61	-4.68	8.18	2.71	-0.84	-0.56	-1.33	1006.20	0.00
1549066995556	2214811.00	77.00	-4.62	8.17	2.67	-4.68	8.18	2.71	-0.84	-0.49	-1.40	1006.21	0.00
1549066995610	2222435.00	77.00	-4.61	8.24	2.64	-4.68	8.18	2.71	-1.05	-0.42	-1.40	1006.21	0.00
1549066995658	2230315.00	77.00	-4.61	8.21	2.62	-4.68	8.18	2.71	-1.05	-0.42	-1.47	1006.21	0.00
1549066995711	2238911.00	77.00	-4.59	8.21	2.64	-4.68	8.18	2.71	-1.40	-0.56	-1.47	1006.20	0.00
1549066995760	2248311.00	78.00	-4.53	8.19	2.71	-4.67	8.18	2.72	-1.19	-0.84	-1.68	1006.20	0.00
1549066995816	2255576.00	77.00	-4.64	8.20	2.65	-4.68	8.18	2.72	-0.42	-1.26	-2.03	1006.20	0.00
1549066995862	2257293.00	77.00	-4.64	8.17	2.61	-4.68	8.18	2.71	-0.63	-1.05	-1.75	1006.20	0.00
1549066995916	2255197.00	77.00	-4.60	8.18	2.59	-4.69	8.18	2.71	-2.03	-0.84	-1.54	1006.20	0.00
1549066995964	2253396.00	77.00	-4.61	8.20	2.67	-4.69	8.17	2.72	-2.10	-0.49	-1.54	1006.20	0.00
1549066996017	2255038.00	77.00	-4.59	8.14	2.64	-4.69	8.17	2.72	-2.03	-0.42	-1.40	1006.20	0.00
1549066996065	2259326.00	77.00	-4.62	8.20	2.66	-4.70	8.17	2.72	-1.40	-0.35	-1.61	1006.20	0.00
1549066996121	2265419.00	77.00	-4.63	8.17	2.67	-4.70	8.17	2.72	-0.70	-0.42	-1.33	1006.20	0.00
1549066996168	2270900.00	77.00	-4.60	8.17	2.60	-4.70	8.17	2.72	-1.33	-0.35	-1.05	1006.19	0.00
1549066996223	2272901.00	77.00	-4.60	8.18	2.73	-4.70	8.16	2.73	-1.96	-0.07	-1.33	1006.19	0.00
1549066996270	2271688.00	77.00	-4.64	8.16	2.67	-4.70	8.16	2.73	-1.12	0.07	-1.40	1006.19	0.00
1549066996326	2271212.00	77.00	-4.59	8.17	2.65	-4.70	8.16	2.73	-1.05	0.14	-1.40	1006.19	0.00
1549066996372	2271398.00	77.00	-4.62	8.18	2.68	-4.70	8.16	2.73	-1.26	0.28	-1.26	1006.19	0.00
1549066996426	2270770.00	77.00	-4.58	8.19	2.66	-4.70	8.16	2.73	-1.19	0.35	-1.12	1006.19	0.00
1549066996474	2268696.00	77.00	-4.60	8.20	2.68	-4.70	8.16	2.73	-1.47	0.35	-1.33	1006.19	0.00
1549066996528	2265588.00	77.00	-4.62	8.20	2.66	-4.70	8.16	2.73	-2.03	0.42	-1.19	1006.19	0.00
1549066996577	2261287.00	77.00	-4.64	8.14	2.71	-4.71	8.15	2.73	-1.33	0.28	-1.40	1006.19	0.00
1549066996631	2254697.00	77.00	-4.62	8.21	2.55	-4.71	8.16	2.72	0.21	0.28	-1.19	1006.19	0.00
1549066996679	2240835.00	77.00	-4.60	8.10	2.67	-4.71	8.16	2.72	-1.82	0.49	-1.05	1006.19	0.00
1549066996733	2219763.00	77.00	-4.61	8.18	2.68	-4.71	8.16	2.72	-1.61	0.42	-1.05	1006.19	0.00
1549066996781	2201408.00	77.00	-4.60	8.16	2.67	-4.71	8.16	2.73	-1.47	0.42	-1.12	1006.19	0.00
1549066996835	2188411.00	77.00	-4.63	8.16	2.66	-4.72	8.15	2.73	-1.61	0.42	-1.19	1006.19	0.00
1549066996883	2180238.00	77.00	-4.65	8.19	2.69	-4.72	8.15	2.73	-0.98	0.28	-1.47	1006.19	0.00
1549066996936	2174122.00	77.00	-4.63	8.19	2.69	-4.72	8.15	2.73	-1.19	0.35	-0.98	1006.19	0.00
1549066996985	2166727.00	77.00	-4.58	8.15	2.65	-4.72	8.15	2.73	-1.61	0.35	-0.98	1006.19	0.00
1549066997039	2158369.00	77.00	-4.64	8.17	2.67	-4.72	8.15	2.73	-1.61	0.21	-1.19	1006.18	0.00
1549066997087	2150262.00	77.00	-4.63	8.20	2.62	-4.72	8.15	2.72	-1.26	0.28	-1.26	1006.18	0.00
1549066997142	2144496.00	77.00	-4.63	8.17	2.65	-4.72	8.15	2.72	-1.26	0.28	-1.26	1006.18	0.00
1549066997189	2140243.00	77.00	-4.59	8.17	2.66	-4.72	8.15	2.72	-1.33	0.21	-1.19	1006.18	0.00
1549066997245	2136496.00	77.00	-4.65	8.14	2.64	-4.73	8.15	2.72	-1.82	0.07	-1.12	1006.18	0.00
1549066997291	2132610.00	77.00	-4.59	8.16	2.67	-4.72	8.15	2.73	-1.54	0.07	-1.12	1006.18	0.00
1549066997346	2127912.00	77.00	-4.61	8.16	2.62	-4.72	8.15	2.72	-0.28	-0.56	-1.47	1006.18	0.00
1549066997394	2122672.00	77.00	-4.61	8.17	2.57	-4.72	8.16	2.71	-0.56	-0.70	-1.40	1006.18	0.00
1549066997448	2110713.00	77.00	-4.61	8.15	2.68	-4.72	8.16	2.72	-1.96	-0.63	-1.26	1006.18	0.00
1549066997496	2101254.00	77.00	-4.58	8.14	2.68	-4.71	8.16	2.72	-1.19	-1.05	-1.61	1006.18	0.00
1549066997550	2100063.00	77.00	-4.63	8.16	2.62	-4.72	8.16	2.72	-1.47	-1.19	-1.47	1006.18	0.00
1549066997598	2105452.00	77.00	-4.61	8.14	2.65	-4.72	8.15	2.73	-1.82	-1.40	-1.54	1006.18	0.00
1549066997652	2113127.00	77.00	-4.65	8.19	2.66	-4.72	8.15	2.73	-1.26	-1.26	-1.61	1006.18	0.00
1549066997700	2119355.00	77.00	-4.65	8.18	2.68	-4.72	8.15	2.74	-1.96	-1.12	-1.47	1006.18	0.00
1549066997755	2122762.00	77.00	-4.58	8.16	2.68	-4.71	8.15	2.74	-1.61	-0.84	-1.33	1006.18	0.00
1549066997802	2125763.00	77.00	-4.61	8.17	2.70	-4.71	8.15	2.75	-1.33	-0.77	-1.54	1006.18	0.00
1549066997856	2130602.00	77.00	-4.63	8.18	2.71	-4.71	8.15	2.75	-1.26	-0.77	-1.54	1006.18	0.00
1549066997904	2137221.00	77.00	-4.64	8.15	2.75	-4.71	8.15	2.76	-0.98	-0.70	-1.33	1006.18	0.00
1549066997958	2144434.00	77.00	-4.65	8.18	2.66	-4.71	8.15	2.75	-1.12	-0.63	-1.33	1006.18	0.00
1549066998006	2151027.00	77.00	-4.66	8.15	2.64	-4.72	8.14	2.75	-1.75	-0.56	-1.33	1006.18	0.00
1549066998061	2156540.00	77.00	-4.62	8.13	2.79	-4.72	8.14	2.76	-1.47	-0.70	-1.61	1006.18	0.00
1549066998108	2157351.00	77.00	-4.65	8.21	2.69	-4.72	8.14	2.76	-0.28	-0.77	-1.61	1006.18	0.00
1549066998163	2150303.00	77.00	-4.64	8.12	2.72	-4.72	8.14	2.76	-1.05	-0.63	-1.26	1006.18	0.00
1549066998211	2138770.00	77.00	-4.61	8.14	2.73	-4.72	8.14	2.77	-1.33	-0.42	-1.26	1006.18	0.00
1549066998265	2131511.00	77.00	-4.67	8.16	2.73	-4.72	8.14	2.77	-0.84	-0.42	-1.33	1006.18	0.00
1549066998314	2131536.00	77.00	-4.61	8.14	2.64	-4.72	8.14	2.76	-1.05	-0.42	-1.40	1006.18	0.00
1549066998369	2135733.00	77.00	-4.62	8.13	2.73	-4.72	8.14	2.77	-1.19	-0.56	-1.54	1006.18	0.00
1549066998415	2141060.00	77.00	-4.64	8.17	2.66	-4.72	8.14	2.76	-0.77	-0.56	-1.40	1006.18	0.00
1549066998469	2146112.00	77.00	-4.59	8.13	2.71	-4.72	8.14	2.77	-1.26	-0.49	-1.33	1006.18	0.00
1549066998517	2150017.00	77.00	-4.63	8.19	2.71	-4.72	8.14	2.77	-1.19	-0.42	-1.40	1006.18	0.00
1549066998572	2154105.00	77.00	-4.62	8.14	2.70	-4.72	8.14	2.77	-1.05	-0.49	-1.33	1006.18	0.00
1549066998626	2159937.00	77.00	-4.62	8.19	2.72	-4.71	8.14	2.77	-0.56	-0.49	-1.47	1006.18	0.00
1549066998676	2167717.00	77.00	-4.58	8.15	2.69	-4.71	8.15	2.77	-0.84	-0.49	-1.47	1006.18	0.00
1549066998722	2176294.00	77.00	-4.62	8.18	2.72	-4.71	8.14	2.77	-1.33	-0.42	-1.33	1006.18	0.00
1549066998776	2184534.00	77.00	-4.62	8.12	2.71	-4.71	8.14	2.77	-1.12	-0.70	-1.47	1006.18	0.00
1549066998824	2189905.00	77.00	-4.62	8.19	2.73	-4.70	8.15	2.77	0.07	-0.77	-1.61	1006.18	0.00
1549066998878	2187627.00	77.00	-4.64	8.10	2.63	-4.71	8.15	2.76	-0.07	-0.56	-1.40	1006.18	0.00
1549066998926	2179953.00	77.00	-4.62	8.17	2.66	-4.71	8.15	2.76	-1.61	-0.49	-1.40	1006.18	0.00
1549066998981	2173430.00	77.00	-4.61	8.16	2.68	-4.71	8.15	2.76	-1.47	-0.42	-1.33	1006.18	0.00
1549066999029	2171891.00	77.00	-4.62	8.12	2.69	-4.71	8.14	2.76	-1.68	-0.35	-1.40	1006.18	0.00
1549066999082	2174348.00	77.00	-4.62	8.19	2.73	-4.71	8.14	2.76	-0.91	-0.21	-1.54	1006.18	0.00
1549066999134	2179069.00	77.00	-4.61	8.14	2.70	-4.71	8.15	2.76	-0.84	-0.35	-1.19	1006.18	0.00
1549066999186	2183676.00	77.00	-4.59	8.16	2.73	-4.71	8.15	2.77	-1.26	-0.28	-1.19	1006.18	0.00
1549066999232	2186543.00	77.00	-4.60	8.17	2.69	-4.71	8.15	2.77	-1.47	-0.28	-1.47	1006.18	0.00
1549066999286	2188528.00	77.00	-4.62	8.19	2.72	-4.71	8.14	2.77	-1.47	-0.07	-1.33	1006.18	0.00
1549066999335	2192556.00	77.00	-4.61	8.19	2.68	-4.71	8.15	2.76	-0.49	0.35	-1.26	1006.18	0.00
1549066999389	2194892.00	77.00	-4.65	8.14	2.68	-4.71	8.15	2.76	-0.63	0.35	-1.26	1006.18	0.00
1549066999437	2195800.00	77.00	-4.63	8.16	2.62	-4.71	8.15	2.75	-1.26	0.63	-0.91	1006.18	0.00
1549066999490	2193677.00	77.00	-4.59	8.17	2.74	-4.71	8.15	2.75	-0.77	0.49	-1.40	1006.18	0.00
1549066999539	2184428.00	77.00	-4.58	8.20	2.63	-4.70	8.16	2.74	0.21	0.35	-1.12	1006.18	0.00
1549066999593	2166415.00	77.00	-4.65	8.13	2.67	-4.71	8.15	2.74	-1.61	0.35	-0.98	1006.18	0.00
1549066999644	2148900.00	77.00	-4.65	8.16	2.64	-4.71	8.15	2.73	-1.19	0.42	-1.19	1006.18	0.00
1549066999697	2137030.00	77.00	-4.63	8.16	2.61	-4.72	8.15	2.73	-1.19	0.42	-1.12	1006.18	0.00
1549066999743	2130164.00	77.00	-4.64	8.13	2.70	-4.72	8.15	2.73	-1.33	0.63	-1.26	1006.18	0.00
1549066999797	2125875.00	77.00	-4.65	8.20	2.64	-4.72	8.15	2.72	-0.28	0.49	-1.26	1006.18	0.00
1549066999845	2121755.00	77.00	-4.61	8.17	2.61	-4.72	8.16	2.72	-0.84	0.35	-0.91	1006.18	0.00
1549066999899	2115875.00	77.00	-4.60	8.15	2.68	-4.72	8.16	2.72	-1.40	0.28	-0.91	1006.18	0.00
1549066999947	2109531.00	77.00	-4.62	8.20	2.68	-4.72	8.16	2.72	-1.61	0.21	-1.12	1006.18	0.00
1549067000001	2104738.00	78.00	-4.65	8.18	2.65	-4.72	8.15	2.72	-1.12	0.28	-1.26	1006.18	0.00
1549067000049	2101847.00	78.00	-4.65	8.16	2.67	-4.72	8.15	2.72	-0.63	0.35	-1.26	1006.18	0.00
1549067000103	2100521.00	78.00	-4.63	8.13	2.61	-4.73	8.15	2.71	-1.26	0.28	-1.19	1006.18	0.00
1549067000152	2098309.00	77.00	-4.62	8.17	2.64	-4.73	8.15	2.71	-1.54	0.28	-1.05	1006.18	0.00
1549067000206	2096299.00	78.00	-4.58	8.11	2.66	-4.72	8.16	2.71	-0.56	-0.14	-1.26	1006.18	0.00
1549067000254	2093426.00	78.00	-4.61	8.26	2.62	-4.71	8.16	2.71	-0.42	-0.49	-1.26	1006.18	0.00
1549067000308	2084185.00	78.00	-4.63	8.18	2.65	-4.71	8.16	2.71	-1.33	-0.42	-1.12	1006.18	0.00
1549067000356	2073883.00	78.00	-4.65	8.19	2.63	-4.71	8.16	2.70	-0.84	-0.56	-1.33	1006.18	0.00
1549067000409	2071098.00	78.00	-4.62	8.15	2.59	-4.71	8.16	2.70	-0.77	-0.56	-1.40	1006.18	0.00
1549067000458	2076211.00	78.00	-4.65	8.12	2.64	-4.72	8.16	2.70	-1.12	-1.05	-1.75	1006.18	0.00
1549067000512	2085683.00	78.00	-4.65	8.19	2.64	-4.72	8.16	2.71	-1.05	-1.40	-1.68	1006.18	0.00
1549067000560	2096399.00	78.00	-4.63	8.17	2.63	-4.72	8.16	2.71	-1.61	-1.54	-1.47	1006.18	0.00
1549067000616	2105636.00	78.00	-4.63	8.19	2.63	-4.72	8.16	2.71	-1.89	-1.33	-1.54	1006.19	0.00
1549067000662	2114583.00	78.00	-4.66	8.15	2.68	-4.72	8.15	2.72	-1.82	-1.19	-1.61	1006.19	0.00
1549067000716	2124764.00	78.00	-4.62	8.18	2.68	-4.72	8.15	2.73	-1.54	-0.91	-1.54	1006.19	0.00
1549067000764	2135813.00	78.00	-4.62	8.13	2.66	-4.72	8.15	2.73	-0.70	-0.84	-1.54	1006.19	0.00
1549067000818	2148858.00	78.00	-4.64	8.14	2.67	-4.72	8.15	2.73	-0.77	-0.84	-1.40	1006.19	0.00
1549067000866	2162574.00	78.00	-4.61	8.15	2.65	-4.72	8.15	2.73	-1.54	-0.63	-1.26	1006.19	0.00
1549067000920	2174794.00	78.00	-4.59	8.16	2.74	-4.72	8.15	2.74	-1.40	-0.91	-1.61	1006.19	0.00
1549067000969	2183573.00	78.00	-4.63	8.21	2.71	-4.71	8.15	2.74	-0.28	-0.91	-1.61	1006.19	0.00
1549067001023	2186333.00	78.00	-4.64	8.16	2.66	-4.71	8.15	2.74	-1.47	-0.56	-1.19	1006.19	0.00
1549067001071	2183847.00	78.00	-4.64	8.15	2.68	-4.72	8.15	2.74	-1.61	-0.49	-1.33	1006.19	0.00
1549067001125	2181595.00	78.00	-4.63	8.18	2.73	-4.72	8.15	2.75	-1.33	-0.35	-1.33	1006.19	0.00
1549067001173	2184154.00	78.00	-4.62	8.12	2.71	-4.72	8.14	2.76	-1.54	-0.49	-1.33	1006.19	0.00
1549067001229	2190371.00	78.00	-4.62	8.16	2.69	-4.72	8.14	2.76	-1.12	-0.63	-1.47	1006.19	0.00
1549067001275	2197285.00	78.00	-4.66	8.12	2.71	-4.72	8.14	2.76	-0.70	-0.49	-1.40	1006.19	0.00
1549067001329	2211615.00	78.00	-4.65	8.17	2.66	-4.72	8.14	2.76	-1.68	-0.42	-1.40	1006.19	0.00
1549067001377	2216913.00	78.00	-4.58	8.16	2.73	-4.72	8.14	2.76	-1.54	-0.35	-1.26	1006.19	0.00
1549067001432	2222637.00	79.00	-4.62	8.16	2.71	-4.72	8.14	2.76	-1.12	-0.49	-1.33	1006.19	0.00
1549067001479	2230148.00	79.00	-4.60	8.20	2.65	-4.71	8.15	2.76	-0.91	-0.42	-1.47	1006.19	0.00
1549067001535	2238848.00	79.00	-4.59	8.15	2.75	-4.71	8.14	2.77	-1.33	-0.35	-1.40	1006.19	0.00
1549067001581	2246524.00	79.00	-4.66	8.17	2.67	-4.71	8.14	2.76	-1.40	-0.35	-1.19	1006.19	0.00
1549067001635	2253919.00	79.00	-4.60	8.13	2.72	-4.71	8.14	2.77	-1.26	-0.49	-1.40	1006.19	0.00
1549067001683	2258089.00	79.00	-4.66	8.18	2.73	-4.71	8.14	2.77	-0.56	-0.70	-1.61	1006.19	0.00
1549067001738	2256613.00	79.00	-4.68	8.18	2.71	-4.72	8.14	2.77	-0.98	-0.42	-1.19	1006.19	0.00
1549067001786	2251529.00	79.00	-4.60	8.19	2.73	-4.71	8.14	2.77	-1.61	-0.35	-1.26	1006.19	0.00
1549067001840	2248829.00	79.00	-4.61	8.15	2.73	-4.71	8.14	2.77	-1.12	-0.35	-1.33	1006.19	0.00
1549067001889	2251413.00	79.00	-4.62	8.16	2.69	-4.71	8.14	2.77	-1.40	-0.28	-1.26	1006.19	0.00
1549067001946	2256182.00	79.00	-4.64	8.18	2.75	-4.71	8.14	2.78	-1.33	-0.35	-1.54	1006.19	0.00
1549067001990	2261741.00	79.00	-4.63	8.20	2.69	-4.71	8.14	2.77	-0.77	-0.49	-1.26	1006.19	0.00
1549067002046	2267312.00	79.00	-4.58	8.17	2.73	-4.71	8.14	2.78	-1.47	-0.35	-1.19	1006.19	0.00
